"subjID","age","dob","dot","gender","language","condition","trial_type","trial_index","stimulus","pointvals_firsthalf","button_pressed","earnedThis","earnedCumulative","posttest","responses","rt","time_elapsed"
"I001",,,,,,"dynamic","html-button-response","0",,"3,6,1,2","0",,,,,"2650","2655"
"I001",,,,,,"dynamic","animation","1",,"3,6,1,2",,,,,"[]",,"14671"
"I001",,,,,,"dynamic","html-button-response","2","<img src='img/screen1d.png'></img>","3,6,1,2","0",,,,,"2578","17255"
"I001",,,,,,"dynamic","animation","3",,"3,6,1,2",,,,,"[]",,"38059"
"I001",,,,,,"dynamic","html-button-response","4","<img src='img/screen5e.jpg'></img>","3,6,1,2","0",,,,,"3009","41073"
"I001",,,,,,"dynamic","html-button-response","5","<p align='center'></p>","3,6,1,2","0",,,,,"8297","49373"
"I001",,,,,,"dynamic","html-button-response","6",,"3,6,1,2","0",,,,,"1710","51089"
"I001",,,,,,"dynamic","audio-keyboard-response","7","sound/3star.wav","3,6,1,2",,"3","3",,,"null","52741"
"I001",,,,,,"dynamic","html-button-response","8",,"3,6,1,2","3",,,,,"2480","55239"
"I001",,,,,,"dynamic","audio-keyboard-response","9","sound/2star.wav","3,6,1,2",,"2","5",,,"null","56752"
"I001",,,,,,"dynamic","html-button-response","10",,"3,6,1,2","1",,,,,"1714","58475"
"I001",,,,,,"dynamic","audio-keyboard-response","11","sound/6star.wav","3,6,1,2",,"6","11",,,"null","59983"
"I001",,,,,,"dynamic","html-button-response","12",,"3,6,1,2","2",,,,,"1079","61068"
"I001",,,,,,"dynamic","audio-keyboard-response","13","sound/1star.wav","3,6,1,2",,"1","12",,,"null","62580"
"I001",,,,,,"dynamic","html-button-response","14",,"3,6,1,2","1",,,,,"897","63483"
"I001",,,,,,"dynamic","audio-keyboard-response","15","sound/6star.wav","3,6,1,2",,"6","18",,,"null","64998"
"I001",,,,,,"dynamic","html-button-response","16",,"3,6,1,2","1",,,,,"975","65979"
"I001",,,,,,"dynamic","audio-keyboard-response","17","sound/6star.wav","3,6,1,2",,"6","24",,,"null","67483"
"I001",,,,,,"dynamic","html-button-response","18",,"3,6,1,2","1",,,,,"980","68476"
"I001",,,,,,"dynamic","audio-keyboard-response","19","sound/6star.wav","3,6,1,2",,"6","30",,,"null","69985"
"I001",,,,,,"dynamic","html-button-response","20",,"3,6,1,2","1",,,,,"964","70956"
"I001",,,,,,"dynamic","audio-keyboard-response","21","sound/6star.wav","3,6,1,2",,"6","36",,,"null","72462"
"I001",,,,,,"dynamic","html-button-response","22",,"3,6,1,2","1",,,,,"1082","73557"
"I001",,,,,,"dynamic","audio-keyboard-response","23","sound/6star.wav","3,6,1,2",,"6","42",,,"null","75063"
"I001",,,,,,"dynamic","html-button-response","24",,"3,6,1,2","1",,,,,"980","76054"
"I001",,,,,,"dynamic","audio-keyboard-response","25","sound/6star.wav","3,6,1,2",,"6","48",,,"null","77563"
"I001",,,,,,"dynamic","html-button-response","26",,"3,6,1,2","1",,,,,"925","78496"
"I001",,,,,,"dynamic","audio-keyboard-response","27","sound/6star.wav","3,6,1,2",,"6","54",,,"null","80000"
"I001",,,,,,"dynamic","html-button-response","28",,"3,6,1,2","1",,,,,"788","80794"
"I001",,,,,,"dynamic","audio-keyboard-response","29","sound/6star.wav","3,6,1,2",,"6","60",,,"null","82298"
"I001",,,,,,"dynamic","html-button-response","30",,"3,6,1,2","1",,,,,"724","83026"
"I001",,,,,,"dynamic","audio-keyboard-response","31","sound/6star.wav","3,6,1,2",,"6","66",,,"null","84529"
"I001",,,,,,"dynamic","html-button-response","32",,"3,6,1,2","1",,,,,"717","85255"
"I001",,,,,,"dynamic","audio-keyboard-response","33","sound/6star.wav","3,6,1,2",,"6","72",,,"null","86760"
"I001",,,,,,"dynamic","html-button-response","34",,"3,6,1,2","1",,,,,"719","87489"
"I001",,,,,,"dynamic","audio-keyboard-response","35","sound/6star.wav","3,6,1,2",,"6","78",,,"null","88992"
"I001",,,,,,"dynamic","html-button-response","36",,"3,6,1,2","1",,,,,"815","89815"
"I001",,,,,,"dynamic","audio-keyboard-response","37","sound/6star.wav","3,6,1,2",,"6","84",,,"null","91322"
"I001",,,,,,"dynamic","html-button-response","38",,"3,6,1,2","1",,,,,"704","92037"
"I001",,,,,,"dynamic","audio-keyboard-response","39","sound/6star.wav","3,6,1,2",,"6","90",,,"null","93599"
"I001",,,,,,"dynamic","html-button-response","40",,"3,6,1,2","1",,,,,"680","94285"
"I001",,,,,,"dynamic","audio-keyboard-response","41","sound/6star.wav","3,6,1,2",,"6","96",,,"null","95791"
"I001",,,,,,"dynamic","html-button-response","42",,"3,6,1,2","1",,,,,"810","96608"
"I001",,,,,,"dynamic","audio-keyboard-response","43","sound/6star.wav","3,6,1,2",,"6","102",,,"null","98112"
"I001",,,,,,"dynamic","html-button-response","44",,"3,6,1,2","1",,,,,"7920","106041"
"I001",,,,,,"dynamic","audio-keyboard-response","45","sound/6star.wav","3,6,1,2",,"6","108",,,"null","107546"
"I001",,,,,,"dynamic","html-button-response","46",,"3,6,1,2","1",,,,,"754","108310"
"I001",,,,,,"dynamic","audio-keyboard-response","47","sound/6star.wav","3,6,1,2",,"6","114",,,"null","109829"
"I001",,,,,,"dynamic","html-button-response","48",,"3,6,1,2","1",,,,,"254","110087"
"I001",,,,,,"dynamic","audio-keyboard-response","49","sound/6star.wav","3,6,1,2",,"6","120",,,"null","111590"
"I001",,,,,,"dynamic","html-button-response","50",,"3,6,1,2","1",,,,,"665","112259"
"I001",,,,,,"dynamic","audio-keyboard-response","51","sound/6star.wav","3,6,1,2",,"6","126",,,"null","113762"
"I001",,,,,,"dynamic","html-button-response","52",,"3,6,1,2","1",,,,,"572","114344"
"I001",,,,,,"dynamic","audio-keyboard-response","53","sound/6star.wav","3,6,1,2",,"6","132",,,"null","115860"
"I001",,,,,,"dynamic","html-button-response","54",,"3,6,1,2","1",,,,,"667","116540"
"I001",,,,,,"dynamic","audio-keyboard-response","55","sound/6star.wav","3,6,1,2",,"6","138",,,"null","118048"
"I001",,,,,,"dynamic","html-button-response","56",,"3,6,1,2","1",,,,,"609","118668"
"I001",,,,,,"dynamic","audio-keyboard-response","57","sound/6star.wav","3,6,1,2",,"6","144",,,"null","120173"
"I001",,,,,,"dynamic","html-button-response","58",,"3,6,1,2","1",,,,,"736","120918"
"I001",,,,,,"dynamic","audio-keyboard-response","59","sound/6star.wav","3,6,1,2",,"6","150",,,"null","122423"
"I001",,,,,,"dynamic","html-button-response","60",,"3,6,1,2","1",,,,,"718","123148"
"I001",,,,,,"dynamic","audio-keyboard-response","61","sound/6star.wav","3,6,1,2",,"6","156",,,"null","124652"
"I001",,,,,,"dynamic","html-button-response","62",,"3,6,1,2","1",,,,,"740","125399"
"I001",,,,,,"dynamic","audio-keyboard-response","63","sound/6star.wav","3,6,1,2",,"6","162",,,"null","126906"
"I001",,,,,,"dynamic","html-button-response","64",,"3,6,1,2","1",,,,,"788","127704"
"I001",,,,,,"dynamic","audio-keyboard-response","65","sound/6star.wav","3,6,1,2",,"6","168",,,"null","129210"
"I001",,,,,,"dynamic","html-button-response","66",,"3,6,1,2","3",,,,,"684","129905"
"I001",,,,,,"dynamic","audio-keyboard-response","67","sound/2star.wav","3,6,1,2",,"2","170",,,"null","131409"
"I001",,,,,,"dynamic","html-button-response","68",,"3,6,1,2","1",,,,,"634","132053"
"I001",,,,,,"dynamic","audio-keyboard-response","69","sound/6star.wav","3,6,1,2",,"6","176",,,"null","133560"
"I001",,,,,,"dynamic","html-button-response","70",,"3,6,1,2","1",,,,,"845","134415"
"I001",,,,,,"dynamic","audio-keyboard-response","71","sound/6star.wav","3,6,1,2",,"6","182",,,"null","135921"
"I001",,,,,,"dynamic","html-button-response","72",,"3,6,1,2","1",,,,,"787","136718"
"I001",,,,,,"dynamic","audio-keyboard-response","73","sound/6star.wav","3,6,1,2",,"6","188",,,"null","138227"
"I001",,,,,,"dynamic","html-button-response","74",,"3,6,1,2","1",,,,,"822","139060"
"I001",,,,,,"dynamic","audio-keyboard-response","75","sound/6star.wav","3,6,1,2",,"6","194",,,"null","140567"
"I001",,,,,,"dynamic","html-button-response","76",,"3,6,1,2","1",,,,,"1472","142049"
"I001",,,,,,"dynamic","audio-keyboard-response","77","sound/6star.wav","3,6,1,2",,"6","200",,,"null","143555"
"I001",,,,,,"dynamic","html-button-response","78",,"3,6,1,2","1",,,,,"659","144229"
"I001",,,,,,"dynamic","audio-keyboard-response","79","sound/6star.wav","3,6,1,2",,"6","206",,,"null","145743"
"I001",,,,,,"dynamic","html-button-response","80",,"3,6,1,2","1",,,,,"564","146328"
"I001",,,,,,"dynamic","audio-keyboard-response","81","sound/6star.wav","3,6,1,2",,"6","212",,,"null","147833"
"I001",,,,,,"dynamic","html-button-response","82",,"3,6,1,2","1",,,,,"611","148453"
"I001",,,,,,"dynamic","audio-keyboard-response","83","sound/6star.wav","3,6,1,2",,"6","218",,,"null","149958"
"I001",,,,,,"dynamic","html-button-response","84",,"3,6,1,2","1",,,,,"814","150781"
"I001",,,,,,"dynamic","audio-keyboard-response","85","sound/6star.wav","3,6,1,2",,"6","224",,,"null","152284"
"I001",,,,,,"dynamic","html-button-response","86",,"3,6,1,2","1",,,,,"898","153191"
"I001",,,,,,"dynamic","audio-keyboard-response","87","sound/6star.wav","3,6,1,2",,"6","230",,,"null","154702"
"I001",,,,,,"dynamic","html-button-response","88",,"3,6,1,2","1",,,,,"699","155410"
"I001",,,,,,"dynamic","audio-keyboard-response","89","sound/6star.wav","3,6,1,2",,"6","236",,,"null","156914"
"I001",,,,,,"dynamic","html-button-response","90",,"3,6,1,2","1",,,,,"642","157566"
"I001",,,,,,"dynamic","audio-keyboard-response","91","sound/6star.wav","3,6,1,2",,"6","242",,,"null","159070"
"I001",,,,,,"dynamic","html-button-response","92",,"3,6,1,2","1",,,,,"552","159627"
"I001",,,,,,"dynamic","audio-keyboard-response","93","sound/6star.wav","3,6,1,2",,"6","248",,,"null","161132"
"I001",,,,,,"dynamic","html-button-response","94",,"3,6,1,2","2",,,,,"774","161914"
"I001",,,,,,"dynamic","audio-keyboard-response","95","sound/8star.wav","3,6,1,2",,"8","256",,,"null","163418"
"I001",,,,,,"dynamic","html-button-response","96",,"3,6,1,2","2",,,,,"922","164347"
"I001",,,,,,"dynamic","audio-keyboard-response","97","sound/8star.wav","3,6,1,2",,"8","264",,,"null","165853"
"I001",,,,,,"dynamic","html-button-response","98",,"3,6,1,2","2",,,,,"1099","166963"
"I001",,,,,,"dynamic","audio-keyboard-response","99","sound/8star.wav","3,6,1,2",,"8","272",,,"null","168466"
"I001",,,,,,"dynamic","html-button-response","100",,"3,6,1,2","2",,,,,"1054","169531"
"I001",,,,,,"dynamic","audio-keyboard-response","101","sound/8star.wav","3,6,1,2",,"8","280",,,"null","171033"
"I001",,,,,,"dynamic","html-button-response","102",,"3,6,1,2","2",,,,,"1479","172519"
"I001",,,,,,"dynamic","audio-keyboard-response","103","sound/8star.wav","3,6,1,2",,"8","288",,,"null","174024"
"I001",,,,,,"dynamic","html-button-response","104",,"3,6,1,2","0",,,,,"1173","175205"
"I001",,,,,,"dynamic","audio-keyboard-response","105","sound/3star.wav","3,6,1,2",,"3","291",,,"null","176710"
"I001",,,,,,"dynamic","html-button-response","106",,"3,6,1,2","3",,,,,"657","177376"
"I001",,,,,,"dynamic","audio-keyboard-response","107","sound/2star.wav","3,6,1,2",,"2","293",,,"null","178882"
"I001",,,,,,"dynamic","html-button-response","108",,"3,6,1,2","2",,,,,"681","179572"
"I001",,,,,,"dynamic","audio-keyboard-response","109","sound/8star.wav","3,6,1,2",,"8","301",,,"null","181076"
"I001",,,,,,"dynamic","html-button-response","110",,"3,6,1,2","2",,,,,"1101","182187"
"I001",,,,,,"dynamic","audio-keyboard-response","111","sound/8star.wav","3,6,1,2",,"8","309",,,"null","183689"
"I001",,,,,,"dynamic","html-button-response","112",,"3,6,1,2","2",,,,,"830","184528"
"I001",,,,,,"dynamic","audio-keyboard-response","113","sound/8star.wav","3,6,1,2",,"8","317",,,"null","186032"
"I001",,,,,,"dynamic","html-button-response","114",,"3,6,1,2","2",,,,,"777","186819"
"I001",,,,,,"dynamic","audio-keyboard-response","115","sound/8star.wav","3,6,1,2",,"8","325",,,"null","188322"
"I001",,,,,,"dynamic","html-button-response","116",,"3,6,1,2","2",,,,,"745","189074"
"I001",,,,,,"dynamic","audio-keyboard-response","117","sound/8star.wav","3,6,1,2",,"8","333",,,"null","190579"
"I001",,,,,,"dynamic","html-button-response","118",,"3,6,1,2","2",,,,,"944","191531"
"I001",,,,,,"dynamic","audio-keyboard-response","119","sound/8star.wav","3,6,1,2",,"8","341",,,"null","193036"
"I001",,,,,,"dynamic","html-button-response","120",,"3,6,1,2","1",,,,,"802","193848"
"I001",,,,,,"dynamic","audio-keyboard-response","121","sound/6star.wav","3,6,1,2",,"6","347",,,"null","195353"
"I001",,,,,,"dynamic","html-button-response","122",,"3,6,1,2","2",,,,,"766","196129"
"I001",,,,,,"dynamic","audio-keyboard-response","123","sound/8star.wav","3,6,1,2",,"8","355",,,"null","197632"
"I001",,,,,,"dynamic","html-button-response","124",,"3,6,1,2","2",,,,,"1065","198707"
"I001",,,,,,"dynamic","audio-keyboard-response","125","sound/8star.wav","3,6,1,2",,"8","363",,,"null","200209"
"I001",,,,,,"dynamic","html-button-response","126",,"3,6,1,2","2",,,,,"746","200960"
"I001",,,,,,"dynamic","audio-keyboard-response","127","sound/8star.wav","3,6,1,2",,"8","371",,,"null","202464"
"I001",,,,,,"dynamic","html-button-response","128",,"3,6,1,2","2",,,,,"793","203266"
"I001",,,,,,"dynamic","audio-keyboard-response","129","sound/8star.wav","3,6,1,2",,"8","379",,,"null","204770"
"I001",,,,,,"dynamic","html-button-response","130",,"3,6,1,2","0",,,,,"869","205645"
"I001",,,,,,"dynamic","audio-keyboard-response","131","sound/3star.wav","3,6,1,2",,"3","382",,,"null","207152"
"I001",,,,,,"dynamic","html-button-response","132",,"3,6,1,2","3",,,,,"647","207806"
"I001",,,,,,"dynamic","audio-keyboard-response","133","sound/2star.wav","3,6,1,2",,"2","384",,,"null","209311"
"I001",,,,,,"dynamic","html-button-response","134",,"3,6,1,2","1",,,,,"666","209987"
"I001",,,,,,"dynamic","audio-keyboard-response","135","sound/6star.wav","3,6,1,2",,"6","390",,,"null","211495"
"I001",,,,,,"dynamic","html-button-response","136",,"3,6,1,2","2",,,,,"948","212453"
"I001",,,,,,"dynamic","audio-keyboard-response","137","sound/8star.wav","3,6,1,2",,"8","398",,,"null","213957"
"I001",,,,,,"dynamic","html-button-response","138",,"3,6,1,2","2",,,,,"832","214799"
"I001",,,,,,"dynamic","audio-keyboard-response","139","sound/8star.wav","3,6,1,2",,"8","406",,,"null","216302"
"I001",,,,,,"dynamic","html-button-response","140",,"3,6,1,2","2",,,,,"755","217067"
"I001",,,,,,"dynamic","audio-keyboard-response","141","sound/8star.wav","3,6,1,2",,"8","414",,,"null","218571"
"I001",,,,,,"dynamic","html-button-response","142",,"3,6,1,2","2",,,,,"706","219287"
"I001",,,,,,"dynamic","audio-keyboard-response","143","sound/8star.wav","3,6,1,2",,"8","422",,,"null","220791"
"I001",,,,,,"dynamic","html-button-response","144",,"3,6,1,2","2",,,,,"561","221360"
"I001",,,,,,"dynamic","audio-keyboard-response","145","sound/8star.wav","3,6,1,2",,"8","430",,,"null","222866"
"I001",,,,,,"dynamic","html-button-response","146",,"3,6,1,2","2",,,,,"771","223646"
"I001",,,,,,"dynamic","audio-keyboard-response","147","sound/8star.wav","3,6,1,2",,"8","438",,,"null","225149"
"I001",,,,,,"dynamic","html-button-response","148",,"3,6,1,2","2",,,,,"709","225868"
"I001",,,,,,"dynamic","audio-keyboard-response","149","sound/8star.wav","3,6,1,2",,"8","446",,,"null","227371"
"I001",,,,,,"dynamic","html-button-response","150",,"3,6,1,2","2",,,,,"685","228068"
"I001",,,,,,"dynamic","audio-keyboard-response","151","sound/8star.wav","3,6,1,2",,"8","454",,,"null","229573"
"I001",,,,,,"dynamic","html-button-response","152",,"3,6,1,2","2",,,,,"839","230419"
"I001",,,,,,"dynamic","audio-keyboard-response","153","sound/8star.wav","3,6,1,2",,"8","462",,,"null","231923"
"I001",,,,,,"dynamic","html-button-response","154",,"3,6,1,2","2",,,,,"1051","232983"
"I001",,,,,,"dynamic","audio-keyboard-response","155","sound/8star.wav","3,6,1,2",,"8","470",,,"null","234490"
"I001",,,,,,"dynamic","html-button-response","156",,"3,6,1,2","2",,,,,"942","235444"
"I001",,,,,,"dynamic","audio-keyboard-response","157","sound/8star.wav","3,6,1,2",,"8","478",,,"null","236947"
"I001",,,,,,"dynamic","html-button-response","158",,"3,6,1,2","0",,,,,"765","237721"
"I001",,,,,,"dynamic","audio-keyboard-response","159","sound/3star.wav","3,6,1,2",,"3","481",,,"null","239226"
"I001",,,,,,"dynamic","html-button-response","160",,"3,6,1,2","1",,,,,"647","239884"
"I001",,,,,,"dynamic","audio-keyboard-response","161","sound/6star.wav","3,6,1,2",,"6","487",,,"null","241389"
"I001",,,,,,"dynamic","html-button-response","162",,"3,6,1,2","3",,,,,"1592","242992"
"I001",,,,,,"dynamic","audio-keyboard-response","163","sound/2star.wav","3,6,1,2",,"2","489",,,"null","244497"
"I001",,,,,,"dynamic","html-button-response","164",,"3,6,1,2","2",,,,,"570","245076"
"I001",,,,,,"dynamic","audio-keyboard-response","165","sound/8star.wav","3,6,1,2",,"8","497",,,"null","246581"
"I001",,,,,,"dynamic","audio-button-response","166","sound/celebration.wav","3,6,1,2","0",,,,,"12377","258967"
"I001",,,,,,"dynamic","html-button-response","167","Which, if any, of these monsters ever gave you <b>1 star</b>?</p>","3,6,1,2","4",,,"incorrect",,"6763","265746"
"I001",,,,,,"dynamic","html-button-response","168","Which, if any, of these monsters ever gave you <b>2 stars</b>?</p>","3,6,1,2","0",,,"incorrect",,"5378","271938"
"I001",,,,,,"dynamic","html-button-response","169","Which, if any, of these monsters ever gave you <b>3 stars</b>?</p>","3,6,1,2","4",,,"incorrect",,"4139","276888"
"I001",,,,,,"dynamic","html-button-response","170","Which, if any, of these monsters ever gave you <b>6 stars</b>?</p>","3,6,1,2","1",,,"correct",,"3769","281669"
"I001",,,,,,"dynamic","html-button-response","171","Which, if any, of these monsters ever gave you <b>8 stars</b>?</p>","3,6,1,2","2",,,"correct",,"3992","286473"
"I001",,,,,,"dynamic","html-button-response","172","Which monster did you like the most?</p>","3,6,1,2","0",,,,,"9219","296501"
"I001",,,,,,"dynamic","survey-text","173",,"3,6,1,2",,,,,"\{""Q0"":""Looks cool, remind monster ink""\}","18802","316108"
"I002","10","April/08/2008","4/6/19","Male",,"dynamic","html-button-response","0",,"2,6,3,1","0",,,,,"22948","22959"
"I002","10","April/08/2008","4/6/19","Male",,"dynamic","animation","1",,"2,6,3,1",,,,,"[]",,"34970"
"I002","10","April/08/2008","4/6/19","Male",,"dynamic","html-button-response","2","<img src='img/screen1d.png'></img>","2,6,3,1","0",,,,,"4248","39228"
"I002","10","April/08/2008","4/6/19","Male",,"dynamic","animation","3",,"2,6,3,1",,,,,"[]",,"60032"
"I002","10","April/08/2008","4/6/19","Male",,"dynamic","html-button-response","4","<img src='img/screen5e.jpg'></img>","2,6,3,1","0",,,,,"2152","62189"
"I002","10","April/08/2008","4/6/19","Male",,"dynamic","html-button-response","5","<p align='center'></p>","2,6,3,1","0",,,,,"9000","71195"
"I002","10","April/08/2008","4/6/19","Male",,"dynamic","html-button-response","6",,"2,6,3,1","3",,,,,"4658","75862"
"I002","10","April/08/2008","4/6/19","Male",,"dynamic","audio-keyboard-response","7","sound/1star.wav","2,6,3,1",,"1","1",,,"null","77376"
"I002","10","April/08/2008","4/6/19","Male",,"dynamic","html-button-response","8",,"2,6,3,1","0",,,,,"5730","83117"
"I002","10","April/08/2008","4/6/19","Male",,"dynamic","audio-keyboard-response","9","sound/2star.wav","2,6,3,1",,"2","3",,,"null","84630"
"I002","10","April/08/2008","4/6/19","Male",,"dynamic","html-button-response","10",,"2,6,3,1","1",,,,,"4372","89011"
"I002","10","April/08/2008","4/6/19","Male",,"dynamic","audio-keyboard-response","11","sound/6star.wav","2,6,3,1",,"6","9",,,"null","90516"
"I002","10","April/08/2008","4/6/19","Male",,"dynamic","html-button-response","12",,"2,6,3,1","3",,,,,"4836","95360"
"I002","10","April/08/2008","4/6/19","Male",,"dynamic","audio-keyboard-response","13","sound/1star.wav","2,6,3,1",,"1","10",,,"null","96865"
"I002","10","April/08/2008","4/6/19","Male",,"dynamic","html-button-response","14",,"2,6,3,1","2",,,,,"2871","99742"
"I002","10","April/08/2008","4/6/19","Male",,"dynamic","audio-keyboard-response","15","sound/3star.wav","2,6,3,1",,"3","13",,,"null","101245"
"I002","10","April/08/2008","4/6/19","Male",,"dynamic","html-button-response","16",,"2,6,3,1","1",,,,,"1420","102676"
"I002","10","April/08/2008","4/6/19","Male",,"dynamic","audio-keyboard-response","17","sound/6star.wav","2,6,3,1",,"6","19",,,"null","104182"
"I002","10","April/08/2008","4/6/19","Male",,"dynamic","html-button-response","18",,"2,6,3,1","0",,,,,"4546","108734"
"I002","10","April/08/2008","4/6/19","Male",,"dynamic","audio-keyboard-response","19","sound/2star.wav","2,6,3,1",,"2","21",,,"null","110239"
"I002","10","April/08/2008","4/6/19","Male",,"dynamic","html-button-response","20",,"2,6,3,1","1",,,,,"1135","111383"
"I002","10","April/08/2008","4/6/19","Male",,"dynamic","audio-keyboard-response","21","sound/6star.wav","2,6,3,1",,"6","27",,,"null","112889"
"I002","10","April/08/2008","4/6/19","Male",,"dynamic","html-button-response","22",,"2,6,3,1","2",,,,,"1122","114019"
"I002","10","April/08/2008","4/6/19","Male",,"dynamic","audio-keyboard-response","23","sound/3star.wav","2,6,3,1",,"3","30",,,"null","115522"
"I002","10","April/08/2008","4/6/19","Male",,"dynamic","html-button-response","24",,"2,6,3,1","0",,,,,"1249","116783"
"I002","10","April/08/2008","4/6/19","Male",,"dynamic","audio-keyboard-response","25","sound/2star.wav","2,6,3,1",,"2","32",,,"null","118285"
"I002","10","April/08/2008","4/6/19","Male",,"dynamic","html-button-response","26",,"2,6,3,1","3",,,,,"734","119027"
"I002","10","April/08/2008","4/6/19","Male",,"dynamic","audio-keyboard-response","27","sound/1star.wav","2,6,3,1",,"1","33",,,"null","120534"
"I002","10","April/08/2008","4/6/19","Male",,"dynamic","html-button-response","28",,"2,6,3,1","1",,,,,"861","121405"
"I002","10","April/08/2008","4/6/19","Male",,"dynamic","audio-keyboard-response","29","sound/6star.wav","2,6,3,1",,"6","39",,,"null","122908"
"I002","10","April/08/2008","4/6/19","Male",,"dynamic","html-button-response","30",,"2,6,3,1","2",,,,,"1643","124563"
"I002","10","April/08/2008","4/6/19","Male",,"dynamic","audio-keyboard-response","31","sound/3star.wav","2,6,3,1",,"3","42",,,"null","126066"
"I002","10","April/08/2008","4/6/19","Male",,"dynamic","html-button-response","32",,"2,6,3,1","0",,,,,"1513","127589"
"I002","10","April/08/2008","4/6/19","Male",,"dynamic","audio-keyboard-response","33","sound/2star.wav","2,6,3,1",,"2","44",,,"null","129096"
"I002","10","April/08/2008","4/6/19","Male",,"dynamic","html-button-response","34",,"2,6,3,1","1",,,,,"2275","131382"
"I002","10","April/08/2008","4/6/19","Male",,"dynamic","audio-keyboard-response","35","sound/6star.wav","2,6,3,1",,"6","50",,,"null","132888"
"I002","10","April/08/2008","4/6/19","Male",,"dynamic","html-button-response","36",,"2,6,3,1","2",,,,,"1300","134198"
"I002","10","April/08/2008","4/6/19","Male",,"dynamic","audio-keyboard-response","37","sound/3star.wav","2,6,3,1",,"3","53",,,"null","135703"
"I002","10","April/08/2008","4/6/19","Male",,"dynamic","html-button-response","38",,"2,6,3,1","3",,,,,"884","136598"
"I002","10","April/08/2008","4/6/19","Male",,"dynamic","audio-keyboard-response","39","sound/1star.wav","2,6,3,1",,"1","54",,,"null","138102"
"I002","10","April/08/2008","4/6/19","Male",,"dynamic","html-button-response","40",,"2,6,3,1","0",,,,,"1025","139132"
"I002","10","April/08/2008","4/6/19","Male",,"dynamic","audio-keyboard-response","41","sound/2star.wav","2,6,3,1",,"2","56",,,"null","140637"
"I002","10","April/08/2008","4/6/19","Male",,"dynamic","html-button-response","42",,"2,6,3,1","1",,,,,"1117","141769"
"I002","10","April/08/2008","4/6/19","Male",,"dynamic","audio-keyboard-response","43","sound/6star.wav","2,6,3,1",,"6","62",,,"null","143282"
"I002","10","April/08/2008","4/6/19","Male",,"dynamic","html-button-response","44",,"2,6,3,1","2",,,,,"1108","144402"
"I002","10","April/08/2008","4/6/19","Male",,"dynamic","audio-keyboard-response","45","sound/3star.wav","2,6,3,1",,"3","65",,,"null","145906"
"I002","10","April/08/2008","4/6/19","Male",,"dynamic","html-button-response","46",,"2,6,3,1","1",,,,,"1526","147441"
"I002","10","April/08/2008","4/6/19","Male",,"dynamic","audio-keyboard-response","47","sound/6star.wav","2,6,3,1",,"6","71",,,"null","148949"
"I002","10","April/08/2008","4/6/19","Male",,"dynamic","html-button-response","48",,"2,6,3,1","0",,,,,"1265","150221"
"I002","10","April/08/2008","4/6/19","Male",,"dynamic","audio-keyboard-response","49","sound/2star.wav","2,6,3,1",,"2","73",,,"null","151728"
"I002","10","April/08/2008","4/6/19","Male",,"dynamic","html-button-response","50",,"2,6,3,1","3",,,,,"730","152472"
"I002","10","April/08/2008","4/6/19","Male",,"dynamic","audio-keyboard-response","51","sound/1star.wav","2,6,3,1",,"1","74",,,"null","153977"
"I002","10","April/08/2008","4/6/19","Male",,"dynamic","html-button-response","52",,"2,6,3,1","2",,,,,"722","154710"
"I002","10","April/08/2008","4/6/19","Male",,"dynamic","audio-keyboard-response","53","sound/3star.wav","2,6,3,1",,"3","77",,,"null","156215"
"I002","10","April/08/2008","4/6/19","Male",,"dynamic","html-button-response","54",,"2,6,3,1","1",,,,,"910","157136"
"I002","10","April/08/2008","4/6/19","Male",,"dynamic","audio-keyboard-response","55","sound/6star.wav","2,6,3,1",,"6","83",,,"null","158639"
"I002","10","April/08/2008","4/6/19","Male",,"dynamic","html-button-response","56",,"2,6,3,1","0",,,,,"1167","159816"
"I002","10","April/08/2008","4/6/19","Male",,"dynamic","audio-keyboard-response","57","sound/2star.wav","2,6,3,1",,"2","85",,,"null","161325"
"I002","10","April/08/2008","4/6/19","Male",,"dynamic","html-button-response","58",,"2,6,3,1","2",,,,,"2435","163771"
"I002","10","April/08/2008","4/6/19","Male",,"dynamic","audio-keyboard-response","59","sound/3star.wav","2,6,3,1",,"3","88",,,"null","165277"
"I002","10","April/08/2008","4/6/19","Male",,"dynamic","html-button-response","60",,"2,6,3,1","3",,,,,"1202","166492"
"I002","10","April/08/2008","4/6/19","Male",,"dynamic","audio-keyboard-response","61","sound/1star.wav","2,6,3,1",,"1","89",,,"null","167997"
"I002","10","April/08/2008","4/6/19","Male",,"dynamic","html-button-response","62",,"2,6,3,1","1",,,,,"731","168741"
"I002","10","April/08/2008","4/6/19","Male",,"dynamic","audio-keyboard-response","63","sound/6star.wav","2,6,3,1",,"6","95",,,"null","170261"
"I002","10","April/08/2008","4/6/19","Male",,"dynamic","html-button-response","64",,"2,6,3,1","0",,,,,"1675","171945"
"I002","10","April/08/2008","4/6/19","Male",,"dynamic","audio-keyboard-response","65","sound/2star.wav","2,6,3,1",,"2","97",,,"null","173504"
"I002","10","April/08/2008","4/6/19","Male",,"dynamic","html-button-response","66",,"2,6,3,1","1",,,,,"1648","175158"
"I002","10","April/08/2008","4/6/19","Male",,"dynamic","audio-keyboard-response","67","sound/6star.wav","2,6,3,1",,"6","103",,,"null","176663"
"I002","10","April/08/2008","4/6/19","Male",,"dynamic","html-button-response","68",,"2,6,3,1","3",,,,,"1257","177927"
"I002","10","April/08/2008","4/6/19","Male",,"dynamic","audio-keyboard-response","69","sound/1star.wav","2,6,3,1",,"1","104",,,"null","179431"
"I002","10","April/08/2008","4/6/19","Male",,"dynamic","html-button-response","70",,"2,6,3,1","2",,,,,"814","180254"
"I002","10","April/08/2008","4/6/19","Male",,"dynamic","audio-keyboard-response","71","sound/3star.wav","2,6,3,1",,"3","107",,,"null","181758"
"I002","10","April/08/2008","4/6/19","Male",,"dynamic","html-button-response","72",,"2,6,3,1","0",,,,,"1155","182924"
"I002","10","April/08/2008","4/6/19","Male",,"dynamic","audio-keyboard-response","73","sound/2star.wav","2,6,3,1",,"2","109",,,"null","184429"
"I002","10","April/08/2008","4/6/19","Male",,"dynamic","html-button-response","74",,"2,6,3,1","3",,,,,"824","185262"
"I002","10","April/08/2008","4/6/19","Male",,"dynamic","audio-keyboard-response","75","sound/1star.wav","2,6,3,1",,"1","110",,,"null","186766"
"I002","10","April/08/2008","4/6/19","Male",,"dynamic","html-button-response","76",,"2,6,3,1","1",,,,,"698","187473"
"I002","10","April/08/2008","4/6/19","Male",,"dynamic","audio-keyboard-response","77","sound/6star.wav","2,6,3,1",,"6","116",,,"null","188981"
"I002","10","April/08/2008","4/6/19","Male",,"dynamic","html-button-response","78",,"2,6,3,1","2",,,,,"1108","190099"
"I002","10","April/08/2008","4/6/19","Male",,"dynamic","audio-keyboard-response","79","sound/3star.wav","2,6,3,1",,"3","119",,,"null","191604"
"I002","10","April/08/2008","4/6/19","Male",,"dynamic","html-button-response","80",,"2,6,3,1","0",,,,,"1472","193084"
"I002","10","April/08/2008","4/6/19","Male",,"dynamic","audio-keyboard-response","81","sound/2star.wav","2,6,3,1",,"2","121",,,"null","194588"
"I002","10","April/08/2008","4/6/19","Male",,"dynamic","html-button-response","82",,"2,6,3,1","1",,,,,"2073","196670"
"I002","10","April/08/2008","4/6/19","Male",,"dynamic","audio-keyboard-response","83","sound/6star.wav","2,6,3,1",,"6","127",,,"null","198176"
"I002","10","April/08/2008","4/6/19","Male",,"dynamic","html-button-response","84",,"2,6,3,1","2",,,,,"1231","199413"
"I002","10","April/08/2008","4/6/19","Male",,"dynamic","audio-keyboard-response","85","sound/3star.wav","2,6,3,1",,"3","130",,,"null","200916"
"I002","10","April/08/2008","4/6/19","Male",,"dynamic","html-button-response","86",,"2,6,3,1","3",,,,,"1737","202659"
"I002","10","April/08/2008","4/6/19","Male",,"dynamic","audio-keyboard-response","87","sound/8star.wav","2,6,3,1",,"8","138",,,"null","204165"
"I002","10","April/08/2008","4/6/19","Male",,"dynamic","html-button-response","88",,"2,6,3,1","0",,,,,"1867","206047"
"I002","10","April/08/2008","4/6/19","Male",,"dynamic","audio-keyboard-response","89","sound/2star.wav","2,6,3,1",,"2","140",,,"null","207554"
"I002","10","April/08/2008","4/6/19","Male",,"dynamic","html-button-response","90",,"2,6,3,1","2",,,,,"743","208305"
"I002","10","April/08/2008","4/6/19","Male",,"dynamic","audio-keyboard-response","91","sound/3star.wav","2,6,3,1",,"3","143",,,"null","209808"
"I002","10","April/08/2008","4/6/19","Male",,"dynamic","html-button-response","92",,"2,6,3,1","1",,,,,"727","210547"
"I002","10","April/08/2008","4/6/19","Male",,"dynamic","audio-keyboard-response","93","sound/6star.wav","2,6,3,1",,"6","149",,,"null","212051"
"I002","10","April/08/2008","4/6/19","Male",,"dynamic","html-button-response","94",,"2,6,3,1","3",,,,,"986","213044"
"I002","10","April/08/2008","4/6/19","Male",,"dynamic","audio-keyboard-response","95","sound/8star.wav","2,6,3,1",,"8","157",,,"null","214549"
"I002","10","April/08/2008","4/6/19","Male",,"dynamic","html-button-response","96",,"2,6,3,1","0",,,,,"1406","215967"
"I002","10","April/08/2008","4/6/19","Male",,"dynamic","audio-keyboard-response","97","sound/2star.wav","2,6,3,1",,"2","159",,,"null","217472"
"I002","10","April/08/2008","4/6/19","Male",,"dynamic","html-button-response","98",,"2,6,3,1","2",,,,,"708","218184"
"I002","10","April/08/2008","4/6/19","Male",,"dynamic","audio-keyboard-response","99","sound/3star.wav","2,6,3,1",,"3","162",,,"null","219687"
"I002","10","April/08/2008","4/6/19","Male",,"dynamic","html-button-response","100",,"2,6,3,1","1",,,,,"976","220672"
"I002","10","April/08/2008","4/6/19","Male",,"dynamic","audio-keyboard-response","101","sound/6star.wav","2,6,3,1",,"6","168",,,"null","222175"
"I002","10","April/08/2008","4/6/19","Male",,"dynamic","html-button-response","102",,"2,6,3,1","0",,,,,"1340","223524"
"I002","10","April/08/2008","4/6/19","Male",,"dynamic","audio-keyboard-response","103","sound/2star.wav","2,6,3,1",,"2","170",,,"null","225029"
"I002","10","April/08/2008","4/6/19","Male",,"dynamic","html-button-response","104",,"2,6,3,1","2",,,,,"1015","226056"
"I002","10","April/08/2008","4/6/19","Male",,"dynamic","audio-keyboard-response","105","sound/3star.wav","2,6,3,1",,"3","173",,,"null","227561"
"I002","10","April/08/2008","4/6/19","Male",,"dynamic","html-button-response","106",,"2,6,3,1","3",,,,,"1578","229146"
"I002","10","April/08/2008","4/6/19","Male",,"dynamic","audio-keyboard-response","107","sound/8star.wav","2,6,3,1",,"8","181",,,"null","230656"
"I002","10","April/08/2008","4/6/19","Male",,"dynamic","html-button-response","108",,"2,6,3,1","1",,,,,"1365","232031"
"I002","10","April/08/2008","4/6/19","Male",,"dynamic","audio-keyboard-response","109","sound/6star.wav","2,6,3,1",,"6","187",,,"null","233537"
"I002","10","April/08/2008","4/6/19","Male",,"dynamic","html-button-response","110",,"2,6,3,1","3",,,,,"1416","234963"
"I002","10","April/08/2008","4/6/19","Male",,"dynamic","audio-keyboard-response","111","sound/8star.wav","2,6,3,1",,"8","195",,,"null","236466"
"I002","10","April/08/2008","4/6/19","Male",,"dynamic","html-button-response","112",,"2,6,3,1","0",,,,,"1033","237509"
"I002","10","April/08/2008","4/6/19","Male",,"dynamic","audio-keyboard-response","113","sound/2star.wav","2,6,3,1",,"2","197",,,"null","239013"
"I002","10","April/08/2008","4/6/19","Male",,"dynamic","html-button-response","114",,"2,6,3,1","2",,,,,"993","240015"
"I002","10","April/08/2008","4/6/19","Male",,"dynamic","audio-keyboard-response","115","sound/3star.wav","2,6,3,1",,"3","200",,,"null","241520"
"I002","10","April/08/2008","4/6/19","Male",,"dynamic","html-button-response","116",,"2,6,3,1","0",,,,,"1337","242866"
"I002","10","April/08/2008","4/6/19","Male",,"dynamic","audio-keyboard-response","117","sound/2star.wav","2,6,3,1",,"2","202",,,"null","244371"
"I002","10","April/08/2008","4/6/19","Male",,"dynamic","html-button-response","118",,"2,6,3,1","1",,,,,"776","245157"
"I002","10","April/08/2008","4/6/19","Male",,"dynamic","audio-keyboard-response","119","sound/6star.wav","2,6,3,1",,"6","208",,,"null","246661"
"I002","10","April/08/2008","4/6/19","Male",,"dynamic","html-button-response","120",,"2,6,3,1","3",,,,,"967","247633"
"I002","10","April/08/2008","4/6/19","Male",,"dynamic","audio-keyboard-response","121","sound/8star.wav","2,6,3,1",,"8","216",,,"null","249136"
"I002","10","April/08/2008","4/6/19","Male",,"dynamic","html-button-response","122",,"2,6,3,1","0",,,,,"990","250136"
"I002","10","April/08/2008","4/6/19","Male",,"dynamic","audio-keyboard-response","123","sound/2star.wav","2,6,3,1",,"2","218",,,"null","251643"
"I002","10","April/08/2008","4/6/19","Male",,"dynamic","html-button-response","124",,"2,6,3,1","2",,,,,"755","252406"
"I002","10","April/08/2008","4/6/19","Male",,"dynamic","audio-keyboard-response","125","sound/3star.wav","2,6,3,1",,"3","221",,,"null","253910"
"I002","10","April/08/2008","4/6/19","Male",,"dynamic","html-button-response","126",,"2,6,3,1","3",,,,,"2708","256634"
"I002","10","April/08/2008","4/6/19","Male",,"dynamic","audio-keyboard-response","127","sound/8star.wav","2,6,3,1",,"8","229",,,"null","258137"
"I002","10","April/08/2008","4/6/19","Male",,"dynamic","html-button-response","128",,"2,6,3,1","1",,,,,"1156","259299"
"I002","10","April/08/2008","4/6/19","Male",,"dynamic","audio-keyboard-response","129","sound/6star.wav","2,6,3,1",,"6","235",,,"null","260802"
"I002","10","April/08/2008","4/6/19","Male",,"dynamic","html-button-response","130",,"2,6,3,1","0",,,,,"1245","262054"
"I002","10","April/08/2008","4/6/19","Male",,"dynamic","audio-keyboard-response","131","sound/2star.wav","2,6,3,1",,"2","237",,,"null","263559"
"I002","10","April/08/2008","4/6/19","Male",,"dynamic","html-button-response","132",,"2,6,3,1","2",,,,,"941","264511"
"I002","10","April/08/2008","4/6/19","Male",,"dynamic","audio-keyboard-response","133","sound/3star.wav","2,6,3,1",,"3","240",,,"null","266016"
"I002","10","April/08/2008","4/6/19","Male",,"dynamic","html-button-response","134",,"2,6,3,1","1",,,,,"731","266756"
"I002","10","April/08/2008","4/6/19","Male",,"dynamic","audio-keyboard-response","135","sound/6star.wav","2,6,3,1",,"6","246",,,"null","268260"
"I002","10","April/08/2008","4/6/19","Male",,"dynamic","html-button-response","136",,"2,6,3,1","3",,,,,"984","269254"
"I002","10","April/08/2008","4/6/19","Male",,"dynamic","audio-keyboard-response","137","sound/8star.wav","2,6,3,1",,"8","254",,,"null","270761"
"I002","10","April/08/2008","4/6/19","Male",,"dynamic","html-button-response","138",,"2,6,3,1","0",,,,,"1205","271974"
"I002","10","April/08/2008","4/6/19","Male",,"dynamic","audio-keyboard-response","139","sound/2star.wav","2,6,3,1",,"2","256",,,"null","273480"
"I002","10","April/08/2008","4/6/19","Male",,"dynamic","html-button-response","140",,"2,6,3,1","2",,,,,"1369","274856"
"I002","10","April/08/2008","4/6/19","Male",,"dynamic","audio-keyboard-response","141","sound/3star.wav","2,6,3,1",,"3","259",,,"null","276361"
"I002","10","April/08/2008","4/6/19","Male",,"dynamic","html-button-response","142",,"2,6,3,1","1",,,,,"1718","278088"
"I002","10","April/08/2008","4/6/19","Male",,"dynamic","audio-keyboard-response","143","sound/6star.wav","2,6,3,1",,"6","265",,,"null","279606"
"I002","10","April/08/2008","4/6/19","Male",,"dynamic","html-button-response","144",,"2,6,3,1","0",,,,,"1213","280829"
"I002","10","April/08/2008","4/6/19","Male",,"dynamic","audio-keyboard-response","145","sound/2star.wav","2,6,3,1",,"2","267",,,"null","282342"
"I002","10","April/08/2008","4/6/19","Male",,"dynamic","html-button-response","146",,"2,6,3,1","2",,,,,"682","283031"
"I002","10","April/08/2008","4/6/19","Male",,"dynamic","audio-keyboard-response","147","sound/3star.wav","2,6,3,1",,"3","270",,,"null","284535"
"I002","10","April/08/2008","4/6/19","Male",,"dynamic","html-button-response","148",,"2,6,3,1","3",,,,,"848","285395"
"I002","10","April/08/2008","4/6/19","Male",,"dynamic","audio-keyboard-response","149","sound/8star.wav","2,6,3,1",,"8","278",,,"null","286901"
"I002","10","April/08/2008","4/6/19","Male",,"dynamic","html-button-response","150",,"2,6,3,1","0",,,,,"3284","290193"
"I002","10","April/08/2008","4/6/19","Male",,"dynamic","audio-keyboard-response","151","sound/2star.wav","2,6,3,1",,"2","280",,,"null","291702"
"I002","10","April/08/2008","4/6/19","Male",,"dynamic","html-button-response","152",,"2,6,3,1","2",,,,,"827","292538"
"I002","10","April/08/2008","4/6/19","Male",,"dynamic","audio-keyboard-response","153","sound/3star.wav","2,6,3,1",,"3","283",,,"null","294041"
"I002","10","April/08/2008","4/6/19","Male",,"dynamic","html-button-response","154",,"2,6,3,1","1",,,,,"266","294315"
"I002","10","April/08/2008","4/6/19","Male",,"dynamic","audio-keyboard-response","155","sound/6star.wav","2,6,3,1",,"6","289",,,"null","295840"
"I002","10","April/08/2008","4/6/19","Male",,"dynamic","html-button-response","156",,"2,6,3,1","3",,,,,"1097","296947"
"I002","10","April/08/2008","4/6/19","Male",,"dynamic","audio-keyboard-response","157","sound/8star.wav","2,6,3,1",,"8","297",,,"null","298452"
"I002","10","April/08/2008","4/6/19","Male",,"dynamic","html-button-response","158",,"2,6,3,1","2",,,,,"1406","299871"
"I002","10","April/08/2008","4/6/19","Male",,"dynamic","audio-keyboard-response","159","sound/3star.wav","2,6,3,1",,"3","300",,,"null","301374"
"I002","10","April/08/2008","4/6/19","Male",,"dynamic","html-button-response","160",,"2,6,3,1","3",,,,,"1052","302434"
"I002","10","April/08/2008","4/6/19","Male",,"dynamic","audio-keyboard-response","161","sound/8star.wav","2,6,3,1",,"8","308",,,"null","303936"
"I002","10","April/08/2008","4/6/19","Male",,"dynamic","html-button-response","162",,"2,6,3,1","1",,,,,"1004","304949"
"I002","10","April/08/2008","4/6/19","Male",,"dynamic","audio-keyboard-response","163","sound/6star.wav","2,6,3,1",,"6","314",,,"null","306454"
"I002","10","April/08/2008","4/6/19","Male",,"dynamic","html-button-response","164",,"2,6,3,1","0",,,,,"1019","307483"
"I002","10","April/08/2008","4/6/19","Male",,"dynamic","audio-keyboard-response","165","sound/2star.wav","2,6,3,1",,"2","316",,,"null","308987"
"I002","10","April/08/2008","4/6/19","Male",,"dynamic","audio-button-response","166","sound/celebration.wav","2,6,3,1","0",,,,,"11489","320489"
"I002","10","April/08/2008","4/6/19","Male",,"dynamic","html-button-response","167","Which, if any, of these monsters ever gave you <b>1 star</b>?</p>","2,6,3,1","3",,,"correct",,"7387","327888"
"I002","10","April/08/2008","4/6/19","Male",,"dynamic","html-button-response","168","Which, if any, of these monsters ever gave you <b>2 stars</b>?</p>","2,6,3,1","0",,,"correct",,"12069","340767"
"I002","10","April/08/2008","4/6/19","Male",,"dynamic","html-button-response","169","Which, if any, of these monsters ever gave you <b>3 stars</b>?</p>","2,6,3,1","2",,,"correct",,"4763","346346"
"I002","10","April/08/2008","4/6/19","Male",,"dynamic","html-button-response","170","Which, if any, of these monsters ever gave you <b>6 stars</b>?</p>","2,6,3,1","1",,,"correct",,"3778","351136"
"I002","10","April/08/2008","4/6/19","Male",,"dynamic","html-button-response","171","Which, if any, of these monsters ever gave you <b>8 stars</b>?</p>","2,6,3,1","3",,,"correct",,"3472","355420"
"I002","10","April/08/2008","4/6/19","Male",,"dynamic","html-button-response","172","Which monster did you like the most?</p>","2,6,3,1","3",,,,,"6108","362340"
"I002","10","April/08/2008","4/6/19","Male",,"dynamic","survey-text","173",,"2,6,3,1",,,,,"\{""Q0"":""Looked cool""\}","8779","371930"
"I004",,,"April 6, 2019","Male",,"dynamic","html-button-response","0",,"3,6,2,1","0",,,,,"41752","41760"
"I004",,,"April 6, 2019","Male",,"dynamic","animation","1",,"3,6,2,1",,,,,"[]",,"53767"
"I004",,,"April 6, 2019","Male",,"dynamic","html-button-response","2","<img src='img/screen1d.png'></img>","3,6,2,1","0",,,,,"2797","56568"
"I004",,,"April 6, 2019","Male",,"dynamic","animation","3",,"3,6,2,1",,,,,"[]",,"77371"
"I004",,,"April 6, 2019","Male",,"dynamic","html-button-response","4","<img src='img/screen5e.jpg'></img>","3,6,2,1","0",,,,,"1432","78810"
"I004",,,"April 6, 2019","Male",,"dynamic","html-button-response","5","<p align='center'></p>","3,6,2,1","0",,,,,"9612","88424"
"I004",,,"April 6, 2019","Male",,"dynamic","html-button-response","6",,"3,6,2,1","3",,,,,"6060","94491"
"I004",,,"April 6, 2019","Male",,"dynamic","audio-keyboard-response","7","sound/1star.wav","3,6,2,1",,"1","1",,,"null","96000"
"I004",,,"April 6, 2019","Male",,"dynamic","html-button-response","8",,"3,6,2,1","2",,,,,"4181","100189"
"I004",,,"April 6, 2019","Male",,"dynamic","audio-keyboard-response","9","sound/2star.wav","3,6,2,1",,"2","3",,,"null","101697"
"I004",,,"April 6, 2019","Male",,"dynamic","html-button-response","10",,"3,6,2,1","0",,,,,"1671","103376"
"I004",,,"April 6, 2019","Male",,"dynamic","audio-keyboard-response","11","sound/3star.wav","3,6,2,1",,"3","6",,,"null","104881"
"I004",,,"April 6, 2019","Male",,"dynamic","html-button-response","12",,"3,6,2,1","1",,,,,"1018","105911"
"I004",,,"April 6, 2019","Male",,"dynamic","audio-keyboard-response","13","sound/6star.wav","3,6,2,1",,"6","12",,,"null","107417"
"I004",,,"April 6, 2019","Male",,"dynamic","html-button-response","14",,"3,6,2,1","3",,,,,"4904","112332"
"I004",,,"April 6, 2019","Male",,"dynamic","audio-keyboard-response","15","sound/1star.wav","3,6,2,1",,"1","13",,,"null","113837"
"I004",,,"April 6, 2019","Male",,"dynamic","html-button-response","16",,"3,6,2,1","1",,,,,"2440","116285"
"I004",,,"April 6, 2019","Male",,"dynamic","audio-keyboard-response","17","sound/6star.wav","3,6,2,1",,"6","19",,,"null","117788"
"I004",,,"April 6, 2019","Male",,"dynamic","html-button-response","18",,"3,6,2,1","2",,,,,"2028","119824"
"I004",,,"April 6, 2019","Male",,"dynamic","audio-keyboard-response","19","sound/2star.wav","3,6,2,1",,"2","21",,,"null","121328"
"I004",,,"April 6, 2019","Male",,"dynamic","html-button-response","20",,"3,6,2,1","0",,,,,"1659","122996"
"I004",,,"April 6, 2019","Male",,"dynamic","audio-keyboard-response","21","sound/3star.wav","3,6,2,1",,"3","24",,,"null","124502"
"I004",,,"April 6, 2019","Male",,"dynamic","html-button-response","22",,"3,6,2,1","3",,,,,"1011","125525"
"I004",,,"April 6, 2019","Male",,"dynamic","audio-keyboard-response","23","sound/1star.wav","3,6,2,1",,"1","25",,,"null","127030"
"I004",,,"April 6, 2019","Male",,"dynamic","html-button-response","24",,"3,6,2,1","2",,,,,"853","127892"
"I004",,,"April 6, 2019","Male",,"dynamic","audio-keyboard-response","25","sound/2star.wav","3,6,2,1",,"2","27",,,"null","129397"
"I004",,,"April 6, 2019","Male",,"dynamic","html-button-response","26",,"3,6,2,1","1",,,,,"855","130260"
"I004",,,"April 6, 2019","Male",,"dynamic","audio-keyboard-response","27","sound/6star.wav","3,6,2,1",,"6","33",,,"null","131765"
"I004",,,"April 6, 2019","Male",,"dynamic","html-button-response","28",,"3,6,2,1","0",,,,,"1157","132929"
"I004",,,"April 6, 2019","Male",,"dynamic","audio-keyboard-response","29","sound/3star.wav","3,6,2,1",,"3","36",,,"null","134434"
"I004",,,"April 6, 2019","Male",,"dynamic","html-button-response","30",,"3,6,2,1","1",,,,,"1381","135820"
"I004",,,"April 6, 2019","Male",,"dynamic","audio-keyboard-response","31","sound/6star.wav","3,6,2,1",,"6","42",,,"null","137336"
"I004",,,"April 6, 2019","Male",,"dynamic","html-button-response","32",,"3,6,2,1","3",,,,,"1822","139168"
"I004",,,"April 6, 2019","Male",,"dynamic","audio-keyboard-response","33","sound/1star.wav","3,6,2,1",,"1","43",,,"null","140671"
"I004",,,"April 6, 2019","Male",,"dynamic","html-button-response","34",,"3,6,2,1","0",,,,,"1223","141902"
"I004",,,"April 6, 2019","Male",,"dynamic","audio-keyboard-response","35","sound/3star.wav","3,6,2,1",,"3","46",,,"null","143407"
"I004",,,"April 6, 2019","Male",,"dynamic","html-button-response","36",,"3,6,2,1","2",,,,,"920","144336"
"I004",,,"April 6, 2019","Male",,"dynamic","audio-keyboard-response","37","sound/2star.wav","3,6,2,1",,"2","48",,,"null","145841"
"I004",,,"April 6, 2019","Male",,"dynamic","html-button-response","38",,"3,6,2,1","1",,,,,"819","146668"
"I004",,,"April 6, 2019","Male",,"dynamic","audio-keyboard-response","39","sound/6star.wav","3,6,2,1",,"6","54",,,"null","148173"
"I004",,,"April 6, 2019","Male",,"dynamic","html-button-response","40",,"3,6,2,1","3",,,,,"1035","149220"
"I004",,,"April 6, 2019","Male",,"dynamic","audio-keyboard-response","41","sound/1star.wav","3,6,2,1",,"1","55",,,"null","150729"
"I004",,,"April 6, 2019","Male",,"dynamic","html-button-response","42",,"3,6,2,1","2",,,,,"894","151634"
"I004",,,"April 6, 2019","Male",,"dynamic","audio-keyboard-response","43","sound/2star.wav","3,6,2,1",,"2","57",,,"null","153140"
"I004",,,"April 6, 2019","Male",,"dynamic","html-button-response","44",,"3,6,2,1","1",,,,,"1139","154288"
"I004",,,"April 6, 2019","Male",,"dynamic","audio-keyboard-response","45","sound/6star.wav","3,6,2,1",,"6","63",,,"null","155794"
"I004",,,"April 6, 2019","Male",,"dynamic","html-button-response","46",,"3,6,2,1","3",,,,,"1231","157031"
"I004",,,"April 6, 2019","Male",,"dynamic","audio-keyboard-response","47","sound/1star.wav","3,6,2,1",,"1","64",,,"null","158534"
"I004",,,"April 6, 2019","Male",,"dynamic","html-button-response","48",,"3,6,2,1","1",,,,,"1077","159615"
"I004",,,"April 6, 2019","Male",,"dynamic","audio-keyboard-response","49","sound/6star.wav","3,6,2,1",,"6","70",,,"null","161120"
"I004",,,"April 6, 2019","Male",,"dynamic","html-button-response","50",,"3,6,2,1","0",,,,,"1662","162792"
"I004",,,"April 6, 2019","Male",,"dynamic","audio-keyboard-response","51","sound/3star.wav","3,6,2,1",,"3","73",,,"null","164295"
"I004",,,"April 6, 2019","Male",,"dynamic","html-button-response","52",,"3,6,2,1","2",,,,,"1358","165664"
"I004",,,"April 6, 2019","Male",,"dynamic","audio-keyboard-response","53","sound/2star.wav","3,6,2,1",,"2","75",,,"null","167171"
"I004",,,"April 6, 2019","Male",,"dynamic","html-button-response","54",,"3,6,2,1","3",,,,,"750","167935"
"I004",,,"April 6, 2019","Male",,"dynamic","audio-keyboard-response","55","sound/1star.wav","3,6,2,1",,"1","76",,,"null","169461"
"I004",,,"April 6, 2019","Male",,"dynamic","html-button-response","56",,"3,6,2,1","3",,,,,"897","170367"
"I004",,,"April 6, 2019","Male",,"dynamic","audio-keyboard-response","57","sound/1star.wav","3,6,2,1",,"1","77",,,"null","171873"
"I004",,,"April 6, 2019","Male",,"dynamic","html-button-response","58",,"3,6,2,1","1",,,,,"788","172675"
"I004",,,"April 6, 2019","Male",,"dynamic","audio-keyboard-response","59","sound/6star.wav","3,6,2,1",,"6","83",,,"null","174180"
"I004",,,"April 6, 2019","Male",,"dynamic","html-button-response","60",,"3,6,2,1","3",,,,,"1689","175880"
"I004",,,"April 6, 2019","Male",,"dynamic","audio-keyboard-response","61","sound/1star.wav","3,6,2,1",,"1","84",,,"null","177389"
"I004",,,"April 6, 2019","Male",,"dynamic","html-button-response","62",,"3,6,2,1","2",,,,,"1822","179220"
"I004",,,"April 6, 2019","Male",,"dynamic","audio-keyboard-response","63","sound/2star.wav","3,6,2,1",,"2","86",,,"null","180726"
"I004",,,"April 6, 2019","Male",,"dynamic","html-button-response","64",,"3,6,2,1","1",,,,,"1064","181800"
"I004",,,"April 6, 2019","Male",,"dynamic","audio-keyboard-response","65","sound/6star.wav","3,6,2,1",,"6","92",,,"null","183331"
"I004",,,"April 6, 2019","Male",,"dynamic","html-button-response","66",,"3,6,2,1","3",,,,,"8853","192190"
"I004",,,"April 6, 2019","Male",,"dynamic","audio-keyboard-response","67","sound/1star.wav","3,6,2,1",,"1","93",,,"null","193694"
"I004",,,"April 6, 2019","Male",,"dynamic","html-button-response","68",,"3,6,2,1","2",,,,,"718","194427"
"I004",,,"April 6, 2019","Male",,"dynamic","audio-keyboard-response","69","sound/2star.wav","3,6,2,1",,"2","95",,,"null","195944"
"I004",,,"April 6, 2019","Male",,"dynamic","html-button-response","70",,"3,6,2,1","0",,,,,"991","196943"
"I004",,,"April 6, 2019","Male",,"dynamic","audio-keyboard-response","71","sound/3star.wav","3,6,2,1",,"3","98",,,"null","198448"
"I004",,,"April 6, 2019","Male",,"dynamic","html-button-response","72",,"3,6,2,1","1",,,,,"880","199336"
"I004",,,"April 6, 2019","Male",,"dynamic","audio-keyboard-response","73","sound/6star.wav","3,6,2,1",,"6","104",,,"null","200843"
"I004",,,"April 6, 2019","Male",,"dynamic","html-button-response","74",,"3,6,2,1","2",,,,,"1666","202518"
"I004",,,"April 6, 2019","Male",,"dynamic","audio-keyboard-response","75","sound/2star.wav","3,6,2,1",,"2","106",,,"null","204022"
"I004",,,"April 6, 2019","Male",,"dynamic","html-button-response","76",,"3,6,2,1","3",,,,,"1016","205048"
"I004",,,"April 6, 2019","Male",,"dynamic","audio-keyboard-response","77","sound/1star.wav","3,6,2,1",,"1","107",,,"null","206556"
"I004",,,"April 6, 2019","Male",,"dynamic","html-button-response","78",,"3,6,2,1","1",,,,,"988","207555"
"I004",,,"April 6, 2019","Male",,"dynamic","audio-keyboard-response","79","sound/6star.wav","3,6,2,1",,"6","113",,,"null","209063"
"I004",,,"April 6, 2019","Male",,"dynamic","html-button-response","80",,"3,6,2,1","0",,,,,"1419","210491"
"I004",,,"April 6, 2019","Male",,"dynamic","audio-keyboard-response","81","sound/3star.wav","3,6,2,1",,"3","116",,,"null","211994"
"I004",,,"April 6, 2019","Male",,"dynamic","html-button-response","82",,"3,6,2,1","2",,,,,"1039","213048"
"I004",,,"April 6, 2019","Male",,"dynamic","audio-keyboard-response","83","sound/2star.wav","3,6,2,1",,"2","118",,,"null","214551"
"I004",,,"April 6, 2019","Male",,"dynamic","html-button-response","84",,"3,6,2,1","3",,,,,"817","215375"
"I004",,,"April 6, 2019","Male",,"dynamic","audio-keyboard-response","85","sound/1star.wav","3,6,2,1",,"1","119",,,"null","216879"
"I004",,,"April 6, 2019","Male",,"dynamic","html-button-response","86",,"3,6,2,1","1",,,,,"791","217677"
"I004",,,"April 6, 2019","Male",,"dynamic","audio-keyboard-response","87","sound/6star.wav","3,6,2,1",,"6","125",,,"null","219182"
"I004",,,"April 6, 2019","Male",,"dynamic","html-button-response","88",,"3,6,2,1","3",,,,,"1803","220997"
"I004",,,"April 6, 2019","Male",,"dynamic","audio-keyboard-response","89","sound/8star.wav","3,6,2,1",,"8","133",,,"null","222500"
"I004",,,"April 6, 2019","Male",,"dynamic","html-button-response","90",,"3,6,2,1","0",,,,,"2067","224577"
"I004",,,"April 6, 2019","Male",,"dynamic","audio-keyboard-response","91","sound/3star.wav","3,6,2,1",,"3","136",,,"null","226082"
"I004",,,"April 6, 2019","Male",,"dynamic","html-button-response","92",,"3,6,2,1","1",,,,,"875","226963"
"I004",,,"April 6, 2019","Male",,"dynamic","audio-keyboard-response","93","sound/6star.wav","3,6,2,1",,"6","142",,,"null","228467"
"I004",,,"April 6, 2019","Male",,"dynamic","html-button-response","94",,"3,6,2,1","3",,,,,"886","229363"
"I004",,,"April 6, 2019","Male",,"dynamic","audio-keyboard-response","95","sound/8star.wav","3,6,2,1",,"8","150",,,"null","230867"
"I004",,,"April 6, 2019","Male",,"dynamic","html-button-response","96",,"3,6,2,1","2",,,,,"1037","231912"
"I004",,,"April 6, 2019","Male",,"dynamic","audio-keyboard-response","97","sound/2star.wav","3,6,2,1",,"2","152",,,"null","233414"
"I004",,,"April 6, 2019","Male",,"dynamic","html-button-response","98",,"3,6,2,1","0",,,,,"1237","234656"
"I004",,,"April 6, 2019","Male",,"dynamic","audio-keyboard-response","99","sound/3star.wav","3,6,2,1",,"3","155",,,"null","236159"
"I004",,,"April 6, 2019","Male",,"dynamic","html-button-response","100",,"3,6,2,1","2",,,,,"1231","237397"
"I004",,,"April 6, 2019","Male",,"dynamic","audio-keyboard-response","101","sound/2star.wav","3,6,2,1",,"2","157",,,"null","238903"
"I004",,,"April 6, 2019","Male",,"dynamic","html-button-response","102",,"3,6,2,1","1",,,,,"675","239586"
"I004",,,"April 6, 2019","Male",,"dynamic","audio-keyboard-response","103","sound/6star.wav","3,6,2,1",,"6","163",,,"null","241088"
"I004",,,"April 6, 2019","Male",,"dynamic","html-button-response","104",,"3,6,2,1","3",,,,,"1127","242225"
"I004",,,"April 6, 2019","Male",,"dynamic","audio-keyboard-response","105","sound/8star.wav","3,6,2,1",,"8","171",,,"null","243729"
"I004",,,"April 6, 2019","Male",,"dynamic","html-button-response","106",,"3,6,2,1","1",,,,,"1507","245249"
"I004",,,"April 6, 2019","Male",,"dynamic","audio-keyboard-response","107","sound/6star.wav","3,6,2,1",,"6","177",,,"null","246757"
"I004",,,"April 6, 2019","Male",,"dynamic","html-button-response","108",,"3,6,2,1","0",,,,,"1150","247928"
"I004",,,"April 6, 2019","Male",,"dynamic","audio-keyboard-response","109","sound/3star.wav","3,6,2,1",,"3","180",,,"null","249435"
"I004",,,"April 6, 2019","Male",,"dynamic","html-button-response","110",,"3,6,2,1","2",,,,,"993","250437"
"I004",,,"April 6, 2019","Male",,"dynamic","audio-keyboard-response","111","sound/2star.wav","3,6,2,1",,"2","182",,,"null","251940"
"I004",,,"April 6, 2019","Male",,"dynamic","html-button-response","112",,"3,6,2,1","0",,,,,"1433","253377"
"I004",,,"April 6, 2019","Male",,"dynamic","audio-keyboard-response","113","sound/3star.wav","3,6,2,1",,"3","185",,,"null","254880"
"I004",,,"April 6, 2019","Male",,"dynamic","html-button-response","114",,"3,6,2,1","3",,,,,"833","255728"
"I004",,,"April 6, 2019","Male",,"dynamic","audio-keyboard-response","115","sound/8star.wav","3,6,2,1",,"8","193",,,"null","257232"
"I004",,,"April 6, 2019","Male",,"dynamic","html-button-response","116",,"3,6,2,1","3",,,,,"8742","265984"
"I004",,,"April 6, 2019","Male",,"dynamic","audio-keyboard-response","117","sound/8star.wav","3,6,2,1",,"8","201",,,"null","267489"
"I004",,,"April 6, 2019","Male",,"dynamic","html-button-response","118",,"3,6,2,1","2",,,,,"1284","268789"
"I004",,,"April 6, 2019","Male",,"dynamic","audio-keyboard-response","119","sound/2star.wav","3,6,2,1",,"2","203",,,"null","270295"
"I004",,,"April 6, 2019","Male",,"dynamic","html-button-response","120",,"3,6,2,1","0",,,,,"742","271045"
"I004",,,"April 6, 2019","Male",,"dynamic","audio-keyboard-response","121","sound/3star.wav","3,6,2,1",,"3","206",,,"null","272551"
"I004",,,"April 6, 2019","Male",,"dynamic","html-button-response","122",,"3,6,2,1","1",,,,,"971","273531"
"I004",,,"April 6, 2019","Male",,"dynamic","audio-keyboard-response","123","sound/6star.wav","3,6,2,1",,"6","212",,,"null","275033"
"I004",,,"April 6, 2019","Male",,"dynamic","html-button-response","124",,"3,6,2,1","2",,,,,"1517","276570"
"I004",,,"April 6, 2019","Male",,"dynamic","audio-keyboard-response","125","sound/2star.wav","3,6,2,1",,"2","214",,,"null","278074"
"I004",,,"April 6, 2019","Male",,"dynamic","html-button-response","126",,"3,6,2,1","0",,,,,"797","278879"
"I004",,,"April 6, 2019","Male",,"dynamic","audio-keyboard-response","127","sound/3star.wav","3,6,2,1",,"3","217",,,"null","280386"
"I004",,,"April 6, 2019","Male",,"dynamic","html-button-response","128",,"3,6,2,1","3",,,,,"894","281291"
"I004",,,"April 6, 2019","Male",,"dynamic","audio-keyboard-response","129","sound/8star.wav","3,6,2,1",,"8","225",,,"null","282795"
"I004",,,"April 6, 2019","Male",,"dynamic","html-button-response","130",,"3,6,2,1","1",,,,,"1446","284250"
"I004",,,"April 6, 2019","Male",,"dynamic","audio-keyboard-response","131","sound/6star.wav","3,6,2,1",,"6","231",,,"null","285757"
"I004",,,"April 6, 2019","Male",,"dynamic","html-button-response","132",,"3,6,2,1","2",,,,,"1466","287231"
"I004",,,"April 6, 2019","Male",,"dynamic","audio-keyboard-response","133","sound/2star.wav","3,6,2,1",,"2","233",,,"null","288735"
"I004",,,"April 6, 2019","Male",,"dynamic","html-button-response","134",,"3,6,2,1","0",,,,,"830","289573"
"I004",,,"April 6, 2019","Male",,"dynamic","audio-keyboard-response","135","sound/3star.wav","3,6,2,1",,"3","236",,,"null","291079"
"I004",,,"April 6, 2019","Male",,"dynamic","html-button-response","136",,"3,6,2,1","3",,,,,"948","292035"
"I004",,,"April 6, 2019","Male",,"dynamic","audio-keyboard-response","137","sound/8star.wav","3,6,2,1",,"8","244",,,"null","293542"
"I004",,,"April 6, 2019","Male",,"dynamic","html-button-response","138",,"3,6,2,1","1",,,,,"1293","294843"
"I004",,,"April 6, 2019","Male",,"dynamic","audio-keyboard-response","139","sound/6star.wav","3,6,2,1",,"6","250",,,"null","296345"
"I004",,,"April 6, 2019","Male",,"dynamic","html-button-response","140",,"3,6,2,1","2",,,,,"909","297261"
"I004",,,"April 6, 2019","Male",,"dynamic","audio-keyboard-response","141","sound/2star.wav","3,6,2,1",,"2","252",,,"null","298765"
"I004",,,"April 6, 2019","Male",,"dynamic","html-button-response","142",,"3,6,2,1","0",,,,,"868","299639"
"I004",,,"April 6, 2019","Male",,"dynamic","audio-keyboard-response","143","sound/3star.wav","3,6,2,1",,"3","255",,,"null","301147"
"I004",,,"April 6, 2019","Male",,"dynamic","html-button-response","144",,"3,6,2,1","3",,,,,"929","302085"
"I004",,,"April 6, 2019","Male",,"dynamic","audio-keyboard-response","145","sound/8star.wav","3,6,2,1",,"8","263",,,"null","303591"
"I004",,,"April 6, 2019","Male",,"dynamic","html-button-response","146",,"3,6,2,1","1",,,,,"1000","304598"
"I004",,,"April 6, 2019","Male",,"dynamic","audio-keyboard-response","147","sound/6star.wav","3,6,2,1",,"6","269",,,"null","306101"
"I004",,,"April 6, 2019","Male",,"dynamic","html-button-response","148",,"3,6,2,1","2",,,,,"994","307105"
"I004",,,"April 6, 2019","Male",,"dynamic","audio-keyboard-response","149","sound/2star.wav","3,6,2,1",,"2","271",,,"null","308609"
"I004",,,"April 6, 2019","Male",,"dynamic","html-button-response","150",,"3,6,2,1","0",,,,,"981","309600"
"I004",,,"April 6, 2019","Male",,"dynamic","audio-keyboard-response","151","sound/3star.wav","3,6,2,1",,"3","274",,,"null","311104"
"I004",,,"April 6, 2019","Male",,"dynamic","html-button-response","152",,"3,6,2,1","3",,,,,"1987","313097"
"I004",,,"April 6, 2019","Male",,"dynamic","audio-keyboard-response","153","sound/8star.wav","3,6,2,1",,"8","282",,,"null","314601"
"I004",,,"April 6, 2019","Male",,"dynamic","html-button-response","154",,"3,6,2,1","1",,,,,"6714","321322"
"I004",,,"April 6, 2019","Male",,"dynamic","audio-keyboard-response","155","sound/6star.wav","3,6,2,1",,"6","288",,,"null","322826"
"I004",,,"April 6, 2019","Male",,"dynamic","html-button-response","156",,"3,6,2,1","2",,,,,"1684","324519"
"I004",,,"April 6, 2019","Male",,"dynamic","audio-keyboard-response","157","sound/2star.wav","3,6,2,1",,"2","290",,,"null","326024"
"I004",,,"April 6, 2019","Male",,"dynamic","html-button-response","158",,"3,6,2,1","0",,,,,"908","326939"
"I004",,,"April 6, 2019","Male",,"dynamic","audio-keyboard-response","159","sound/3star.wav","3,6,2,1",,"3","293",,,"null","328442"
"I004",,,"April 6, 2019","Male",,"dynamic","html-button-response","160",,"3,6,2,1","3",,,,,"897","329347"
"I004",,,"April 6, 2019","Male",,"dynamic","audio-keyboard-response","161","sound/8star.wav","3,6,2,1",,"8","301",,,"null","330858"
"I004",,,"April 6, 2019","Male",,"dynamic","html-button-response","162",,"3,6,2,1","1",,,,,"1562","332442"
"I004",,,"April 6, 2019","Male",,"dynamic","audio-keyboard-response","163","sound/6star.wav","3,6,2,1",,"6","307",,,"null","333947"
"I004",,,"April 6, 2019","Male",,"dynamic","html-button-response","164",,"3,6,2,1","2",,,,,"1249","335204"
"I004",,,"April 6, 2019","Male",,"dynamic","audio-keyboard-response","165","sound/2star.wav","3,6,2,1",,"2","309",,,"null","336711"
"I004",,,"April 6, 2019","Male",,"dynamic","audio-button-response","166","sound/celebration.wav","3,6,2,1","0",,,,,"13890","350617"
"I004",,,"April 6, 2019","Male",,"dynamic","html-button-response","167","Which, if any, of these monsters ever gave you <b>1 star</b>?</p>","3,6,2,1","3",,,"correct",,"9810","360438"
"I004",,,"April 6, 2019","Male",,"dynamic","html-button-response","168","Which, if any, of these monsters ever gave you <b>2 stars</b>?</p>","3,6,2,1","2",,,"correct",,"6274","367523"
"I004",,,"April 6, 2019","Male",,"dynamic","html-button-response","169","Which, if any, of these monsters ever gave you <b>3 stars</b>?</p>","3,6,2,1","0",,,"correct",,"4422","372755"
"I004",,,"April 6, 2019","Male",,"dynamic","html-button-response","170","Which, if any, of these monsters ever gave you <b>6 stars</b>?</p>","3,6,2,1","1",,,"correct",,"4237","378003"
"I004",,,"April 6, 2019","Male",,"dynamic","html-button-response","171","Which, if any, of these monsters ever gave you <b>8 stars</b>?</p>","3,6,2,1","3",,,"correct",,"3829","382642"
"I004",,,"April 6, 2019","Male",,"dynamic","html-button-response","172","Which monster did you like the most?</p>","3,6,2,1","3",,,,,"4685","388139"
"I004",,,"April 6, 2019","Male",,"dynamic","survey-text","173",,"3,6,2,1",,,,,"\{""Q0"":""Gave most stars and favorite color""\}","13318","402266"
"I005","9",,"April6 2019","Male",,"dynamic","html-button-response","0",,"2,6,3,1","0",,,,,"7061","7071"
"I005","9",,"April6 2019","Male",,"dynamic","animation","1",,"2,6,3,1",,,,,"[]",,"19086"
"I005","9",,"April6 2019","Male",,"dynamic","html-button-response","2","<img src='img/screen1d.png'></img>","2,6,3,1","0",,,,,"2338","21433"
"I005","9",,"April6 2019","Male",,"dynamic","animation","3",,"2,6,3,1",,,,,"[]",,"42239"
"I005","9",,"April6 2019","Male",,"dynamic","html-button-response","4","<img src='img/screen5e.jpg'></img>","2,6,3,1","0",,,,,"2207","44453"
"I005","9",,"April6 2019","Male",,"dynamic","html-button-response","5","<p align='center'></p>","2,6,3,1","0",,,,,"10738","55197"
"I005","9",,"April6 2019","Male",,"dynamic","html-button-response","6",,"2,6,3,1","3",,,,,"6893","62100"
"I005","9",,"April6 2019","Male",,"dynamic","audio-keyboard-response","7","sound/1star.wav","2,6,3,1",,"1","1",,,"null","63614"
"I005","9",,"April6 2019","Male",,"dynamic","html-button-response","8",,"2,6,3,1","2",,,,,"5141","68768"
"I005","9",,"April6 2019","Male",,"dynamic","audio-keyboard-response","9","sound/3star.wav","2,6,3,1",,"3","4",,,"null","70274"
"I005","9",,"April6 2019","Male",,"dynamic","html-button-response","10",,"2,6,3,1","1",,,,,"3648","73931"
"I005","9",,"April6 2019","Male",,"dynamic","audio-keyboard-response","11","sound/6star.wav","2,6,3,1",,"6","10",,,"null","75437"
"I005","9",,"April6 2019","Male",,"dynamic","html-button-response","12",,"2,6,3,1","0",,,,,"2811","78255"
"I005","9",,"April6 2019","Male",,"dynamic","audio-keyboard-response","13","sound/2star.wav","2,6,3,1",,"2","12",,,"null","79761"
"I005","9",,"April6 2019","Male",,"dynamic","html-button-response","14",,"2,6,3,1","3",,,,,"3435","83205"
"I005","9",,"April6 2019","Male",,"dynamic","audio-keyboard-response","15","sound/1star.wav","2,6,3,1",,"1","13",,,"null","84712"
"I005","9",,"April6 2019","Male",,"dynamic","html-button-response","16",,"2,6,3,1","0",,,,,"4572","89294"
"I005","9",,"April6 2019","Male",,"dynamic","audio-keyboard-response","17","sound/2star.wav","2,6,3,1",,"2","15",,,"null","90800"
"I005","9",,"April6 2019","Male",,"dynamic","html-button-response","18",,"2,6,3,1","2",,,,,"5195","96006"
"I005","9",,"April6 2019","Male",,"dynamic","audio-keyboard-response","19","sound/3star.wav","2,6,3,1",,"3","18",,,"null","97510"
"I005","9",,"April6 2019","Male",,"dynamic","html-button-response","20",,"2,6,3,1","1",,,,,"2673","100194"
"I005","9",,"April6 2019","Male",,"dynamic","audio-keyboard-response","21","sound/6star.wav","2,6,3,1",,"6","24",,,"null","101703"
"I005","9",,"April6 2019","Male",,"dynamic","html-button-response","22",,"2,6,3,1","3",,,,,"3736","105447"
"I005","9",,"April6 2019","Male",,"dynamic","audio-keyboard-response","23","sound/1star.wav","2,6,3,1",,"1","25",,,"null","106952"
"I005","9",,"April6 2019","Male",,"dynamic","html-button-response","24",,"2,6,3,1","0",,,,,"4476","111436"
"I005","9",,"April6 2019","Male",,"dynamic","audio-keyboard-response","25","sound/2star.wav","2,6,3,1",,"2","27",,,"null","112942"
"I005","9",,"April6 2019","Male",,"dynamic","html-button-response","26",,"2,6,3,1","2",,,,,"2531","115482"
"I005","9",,"April6 2019","Male",,"dynamic","audio-keyboard-response","27","sound/3star.wav","2,6,3,1",,"3","30",,,"null","116987"
"I005","9",,"April6 2019","Male",,"dynamic","html-button-response","28",,"2,6,3,1","1",,,,,"1480","118480"
"I005","9",,"April6 2019","Male",,"dynamic","audio-keyboard-response","29","sound/6star.wav","2,6,3,1",,"6","36",,,"null","119987"
"I005","9",,"April6 2019","Male",,"dynamic","html-button-response","30",,"2,6,3,1","1",,,,,"5253","125251"
"I005","9",,"April6 2019","Male",,"dynamic","audio-keyboard-response","31","sound/6star.wav","2,6,3,1",,"6","42",,,"null","126757"
"I005","9",,"April6 2019","Male",,"dynamic","html-button-response","32",,"2,6,3,1","0",,,,,"3431","130197"
"I005","9",,"April6 2019","Male",,"dynamic","audio-keyboard-response","33","sound/2star.wav","2,6,3,1",,"2","44",,,"null","131702"
"I005","9",,"April6 2019","Male",,"dynamic","html-button-response","34",,"2,6,3,1","3",,,,,"2375","134088"
"I005","9",,"April6 2019","Male",,"dynamic","audio-keyboard-response","35","sound/1star.wav","2,6,3,1",,"1","45",,,"null","135596"
"I005","9",,"April6 2019","Male",,"dynamic","html-button-response","36",,"2,6,3,1","1",,,,,"1403","137009"
"I005","9",,"April6 2019","Male",,"dynamic","audio-keyboard-response","37","sound/6star.wav","2,6,3,1",,"6","51",,,"null","138515"
"I005","9",,"April6 2019","Male",,"dynamic","html-button-response","38",,"2,6,3,1","2",,,,,"2770","141294"
"I005","9",,"April6 2019","Male",,"dynamic","audio-keyboard-response","39","sound/3star.wav","2,6,3,1",,"3","54",,,"null","142801"
"I005","9",,"April6 2019","Male",,"dynamic","html-button-response","40",,"2,6,3,1","1",,,,,"2403","145213"
"I005","9",,"April6 2019","Male",,"dynamic","audio-keyboard-response","41","sound/6star.wav","2,6,3,1",,"6","60",,,"null","146722"
"I005","9",,"April6 2019","Male",,"dynamic","html-button-response","42",,"2,6,3,1","3",,,,,"4204","150943"
"I005","9",,"April6 2019","Male",,"dynamic","audio-keyboard-response","43","sound/1star.wav","2,6,3,1",,"1","61",,,"null","152447"
"I005","9",,"April6 2019","Male",,"dynamic","html-button-response","44",,"2,6,3,1","0",,,,,"3226","155684"
"I005","9",,"April6 2019","Male",,"dynamic","audio-keyboard-response","45","sound/2star.wav","2,6,3,1",,"2","63",,,"null","157188"
"I005","9",,"April6 2019","Male",,"dynamic","html-button-response","46",,"2,6,3,1","2",,,,,"2630","159825"
"I005","9",,"April6 2019","Male",,"dynamic","audio-keyboard-response","47","sound/3star.wav","2,6,3,1",,"3","66",,,"null","161330"
"I005","9",,"April6 2019","Male",,"dynamic","html-button-response","48",,"2,6,3,1","1",,,,,"1182","162522"
"I005","9",,"April6 2019","Male",,"dynamic","audio-keyboard-response","49","sound/6star.wav","2,6,3,1",,"6","72",,,"null","164030"
"I005","9",,"April6 2019","Male",,"dynamic","html-button-response","50",,"2,6,3,1","2",,,,,"2770","166812"
"I005","9",,"April6 2019","Male",,"dynamic","audio-keyboard-response","51","sound/3star.wav","2,6,3,1",,"3","75",,,"null","168318"
"I005","9",,"April6 2019","Male",,"dynamic","html-button-response","52",,"2,6,3,1","3",,,,,"1505","169830"
"I005","9",,"April6 2019","Male",,"dynamic","audio-keyboard-response","53","sound/1star.wav","2,6,3,1",,"1","76",,,"null","171338"
"I005","9",,"April6 2019","Male",,"dynamic","html-button-response","54",,"2,6,3,1","1",,,,,"1269","172617"
"I005","9",,"April6 2019","Male",,"dynamic","audio-keyboard-response","55","sound/6star.wav","2,6,3,1",,"6","82",,,"null","174126"
"I005","9",,"April6 2019","Male",,"dynamic","html-button-response","56",,"2,6,3,1","0",,,,,"1575","175714"
"I005","9",,"April6 2019","Male",,"dynamic","audio-keyboard-response","57","sound/2star.wav","2,6,3,1",,"2","84",,,"null","177227"
"I005","9",,"April6 2019","Male",,"dynamic","html-button-response","58",,"2,6,3,1","0",,,,,"3739","180974"
"I005","9",,"April6 2019","Male",,"dynamic","audio-keyboard-response","59","sound/2star.wav","2,6,3,1",,"2","86",,,"null","182486"
"I005","9",,"April6 2019","Male",,"dynamic","html-button-response","60",,"2,6,3,1","3",,,,,"1124","183619"
"I005","9",,"April6 2019","Male",,"dynamic","audio-keyboard-response","61","sound/1star.wav","2,6,3,1",,"1","87",,,"null","185124"
"I005","9",,"April6 2019","Male",,"dynamic","html-button-response","62",,"2,6,3,1","1",,,,,"1634","186767"
"I005","9",,"April6 2019","Male",,"dynamic","audio-keyboard-response","63","sound/6star.wav","2,6,3,1",,"6","93",,,"null","188274"
"I005","9",,"April6 2019","Male",,"dynamic","html-button-response","64",,"2,6,3,1","3",,,,,"13628","201914"
"I005","9",,"April6 2019","Male",,"dynamic","audio-keyboard-response","65","sound/1star.wav","2,6,3,1",,"1","94",,,"null","203480"
"I005","9",,"April6 2019","Male",,"dynamic","html-button-response","66",,"2,6,3,1","0",,,,,"1606","205090"
"I005","9",,"April6 2019","Male",,"dynamic","audio-keyboard-response","67","sound/2star.wav","2,6,3,1",,"2","96",,,"null","206603"
"I005","9",,"April6 2019","Male",,"dynamic","html-button-response","68",,"2,6,3,1","2",,,,,"2041","208654"
"I005","9",,"April6 2019","Male",,"dynamic","audio-keyboard-response","69","sound/3star.wav","2,6,3,1",,"3","99",,,"null","210163"
"I005","9",,"April6 2019","Male",,"dynamic","html-button-response","70",,"2,6,3,1","1",,,,,"1383","211557"
"I005","9",,"April6 2019","Male",,"dynamic","audio-keyboard-response","71","sound/6star.wav","2,6,3,1",,"6","105",,,"null","213062"
"I005","9",,"April6 2019","Male",,"dynamic","html-button-response","72",,"2,6,3,1","2",,,,,"2416","215493"
"I005","9",,"April6 2019","Male",,"dynamic","audio-keyboard-response","73","sound/3star.wav","2,6,3,1",,"3","108",,,"null","217004"
"I005","9",,"April6 2019","Male",,"dynamic","html-button-response","74",,"2,6,3,1","0",,,,,"1321","218333"
"I005","9",,"April6 2019","Male",,"dynamic","audio-keyboard-response","75","sound/2star.wav","2,6,3,1",,"2","110",,,"null","219840"
"I005","9",,"April6 2019","Male",,"dynamic","html-button-response","76",,"2,6,3,1","3",,,,,"2961","222809"
"I005","9",,"April6 2019","Male",,"dynamic","audio-keyboard-response","77","sound/1star.wav","2,6,3,1",,"1","111",,,"null","224317"
"I005","9",,"April6 2019","Male",,"dynamic","html-button-response","78",,"2,6,3,1","1",,,,,"1237","225563"
"I005","9",,"April6 2019","Male",,"dynamic","audio-keyboard-response","79","sound/6star.wav","2,6,3,1",,"6","117",,,"null","227070"
"I005","9",,"April6 2019","Male",,"dynamic","html-button-response","80",,"2,6,3,1","3",,,,,"3548","230635"
"I005","9",,"April6 2019","Male",,"dynamic","audio-keyboard-response","81","sound/1star.wav","2,6,3,1",,"1","118",,,"null","232141"
"I005","9",,"April6 2019","Male",,"dynamic","html-button-response","82",,"2,6,3,1","0",,,,,"1025","233177"
"I005","9",,"April6 2019","Male",,"dynamic","audio-keyboard-response","83","sound/2star.wav","2,6,3,1",,"2","120",,,"null","234681"
"I005","9",,"April6 2019","Male",,"dynamic","html-button-response","84",,"2,6,3,1","2",,,,,"2123","236814"
"I005","9",,"April6 2019","Male",,"dynamic","audio-keyboard-response","85","sound/3star.wav","2,6,3,1",,"3","123",,,"null","238323"
"I005","9",,"April6 2019","Male",,"dynamic","html-button-response","86",,"2,6,3,1","1",,,,,"1497","239830"
"I005","9",,"April6 2019","Male",,"dynamic","audio-keyboard-response","87","sound/6star.wav","2,6,3,1",,"6","129",,,"null","241338"
"I005","9",,"April6 2019","Male",,"dynamic","html-button-response","88",,"2,6,3,1","0",,,,,"4627","245992"
"I005","9",,"April6 2019","Male",,"dynamic","audio-keyboard-response","89","sound/2star.wav","2,6,3,1",,"2","131",,,"null","247497"
"I005","9",,"April6 2019","Male",,"dynamic","html-button-response","90",,"2,6,3,1","3",,,,,"1178","248686"
"I005","9",,"April6 2019","Male",,"dynamic","audio-keyboard-response","91","sound/8star.wav","2,6,3,1",,"8","139",,,"null","250191"
"I005","9",,"April6 2019","Male",,"dynamic","html-button-response","92",,"2,6,3,1","2",,,,,"1947","252148"
"I005","9",,"April6 2019","Male",,"dynamic","audio-keyboard-response","93","sound/3star.wav","2,6,3,1",,"3","142",,,"null","253650"
"I005","9",,"April6 2019","Male",,"dynamic","html-button-response","94",,"2,6,3,1","1",,,,,"2194","255853"
"I005","9",,"April6 2019","Male",,"dynamic","audio-keyboard-response","95","sound/6star.wav","2,6,3,1",,"6","148",,,"null","257358"
"I005","9",,"April6 2019","Male",,"dynamic","html-button-response","96",,"2,6,3,1","1",,,,,"2741","260107"
"I005","9",,"April6 2019","Male",,"dynamic","audio-keyboard-response","97","sound/6star.wav","2,6,3,1",,"6","154",,,"null","261613"
"I005","9",,"April6 2019","Male",,"dynamic","html-button-response","98",,"2,6,3,1","0",,,,,"1391","263009"
"I005","9",,"April6 2019","Male",,"dynamic","audio-keyboard-response","99","sound/2star.wav","2,6,3,1",,"2","156",,,"null","264513"
"I005","9",,"April6 2019","Male",,"dynamic","html-button-response","100",,"2,6,3,1","2",,,,,"2418","266935"
"I005","9",,"April6 2019","Male",,"dynamic","audio-keyboard-response","101","sound/3star.wav","2,6,3,1",,"3","159",,,"null","268442"
"I005","9",,"April6 2019","Male",,"dynamic","html-button-response","102",,"2,6,3,1","3",,,,,"954","269412"
"I005","9",,"April6 2019","Male",,"dynamic","audio-keyboard-response","103","sound/8star.wav","2,6,3,1",,"8","167",,,"null","270916"
"I005","9",,"April6 2019","Male",,"dynamic","html-button-response","104",,"2,6,3,1","0",,,,,"2976","273898"
"I005","9",,"April6 2019","Male",,"dynamic","audio-keyboard-response","105","sound/2star.wav","2,6,3,1",,"2","169",,,"null","275401"
"I005","9",,"April6 2019","Male",,"dynamic","html-button-response","106",,"2,6,3,1","2",,,,,"1820","277225"
"I005","9",,"April6 2019","Male",,"dynamic","audio-keyboard-response","107","sound/3star.wav","2,6,3,1",,"3","172",,,"null","278731"
"I005","9",,"April6 2019","Male",,"dynamic","html-button-response","108",,"2,6,3,1","1",,,,,"1115","279858"
"I005","9",,"April6 2019","Male",,"dynamic","audio-keyboard-response","109","sound/6star.wav","2,6,3,1",,"6","178",,,"null","281362"
"I005","9",,"April6 2019","Male",,"dynamic","html-button-response","110",,"2,6,3,1","3",,,,,"1468","282843"
"I005","9",,"April6 2019","Male",,"dynamic","audio-keyboard-response","111","sound/8star.wav","2,6,3,1",,"8","186",,,"null","284348"
"I005","9",,"April6 2019","Male",,"dynamic","html-button-response","112",,"2,6,3,1","0",,,,,"12649","297006"
"I005","9",,"April6 2019","Male",,"dynamic","audio-keyboard-response","113","sound/2star.wav","2,6,3,1",,"2","188",,,"null","298511"
"I005","9",,"April6 2019","Male",,"dynamic","html-button-response","114",,"2,6,3,1","1",,,,,"1354","299875"
"I005","9",,"April6 2019","Male",,"dynamic","audio-keyboard-response","115","sound/6star.wav","2,6,3,1",,"6","194",,,"null","301390"
"I005","9",,"April6 2019","Male",,"dynamic","html-button-response","116",,"2,6,3,1","2",,,,,"1531","302929"
"I005","9",,"April6 2019","Male",,"dynamic","audio-keyboard-response","117","sound/3star.wav","2,6,3,1",,"3","197",,,"null","304433"
"I005","9",,"April6 2019","Male",,"dynamic","html-button-response","118",,"2,6,3,1","3",,,,,"1042","305484"
"I005","9",,"April6 2019","Male",,"dynamic","audio-keyboard-response","119","sound/8star.wav","2,6,3,1",,"8","205",,,"null","306991"
"I005","9",,"April6 2019","Male",,"dynamic","html-button-response","120",,"2,6,3,1","0",,,,,"2054","309052"
"I005","9",,"April6 2019","Male",,"dynamic","audio-keyboard-response","121","sound/2star.wav","2,6,3,1",,"2","207",,,"null","310557"
"I005","9",,"April6 2019","Male",,"dynamic","html-button-response","122",,"2,6,3,1","1",,,,,"1575","312142"
"I005","9",,"April6 2019","Male",,"dynamic","audio-keyboard-response","123","sound/6star.wav","2,6,3,1",,"6","213",,,"null","313652"
"I005","9",,"April6 2019","Male",,"dynamic","html-button-response","124",,"2,6,3,1","2",,,,,"1665","315325"
"I005","9",,"April6 2019","Male",,"dynamic","audio-keyboard-response","125","sound/3star.wav","2,6,3,1",,"3","216",,,"null","316831"
"I005","9",,"April6 2019","Male",,"dynamic","html-button-response","126",,"2,6,3,1","3",,,,,"932","317770"
"I005","9",,"April6 2019","Male",,"dynamic","audio-keyboard-response","127","sound/8star.wav","2,6,3,1",,"8","224",,,"null","319275"
"I005","9",,"April6 2019","Male",,"dynamic","html-button-response","128",,"2,6,3,1","0",,,,,"1711","320995"
"I005","9",,"April6 2019","Male",,"dynamic","audio-keyboard-response","129","sound/2star.wav","2,6,3,1",,"2","226",,,"null","322502"
"I005","9",,"April6 2019","Male",,"dynamic","html-button-response","130",,"2,6,3,1","1",,,,,"1069","323579"
"I005","9",,"April6 2019","Male",,"dynamic","audio-keyboard-response","131","sound/6star.wav","2,6,3,1",,"6","232",,,"null","325084"
"I005","9",,"April6 2019","Male",,"dynamic","html-button-response","132",,"2,6,3,1","3",,,,,"1886","326982"
"I005","9",,"April6 2019","Male",,"dynamic","audio-keyboard-response","133","sound/8star.wav","2,6,3,1",,"8","240",,,"null","328488"
"I005","9",,"April6 2019","Male",,"dynamic","html-button-response","134",,"2,6,3,1","2",,,,,"2020","330515"
"I005","9",,"April6 2019","Male",,"dynamic","audio-keyboard-response","135","sound/3star.wav","2,6,3,1",,"3","243",,,"null","332035"
"I005","9",,"April6 2019","Male",,"dynamic","html-button-response","136",,"2,6,3,1","0",,,,,"1233","333279"
"I005","9",,"April6 2019","Male",,"dynamic","audio-keyboard-response","137","sound/2star.wav","2,6,3,1",,"2","245",,,"null","334784"
"I005","9",,"April6 2019","Male",,"dynamic","html-button-response","138",,"2,6,3,1","2",,,,,"968","335758"
"I005","9",,"April6 2019","Male",,"dynamic","audio-keyboard-response","139","sound/3star.wav","2,6,3,1",,"3","248",,,"null","337267"
"I005","9",,"April6 2019","Male",,"dynamic","html-button-response","140",,"2,6,3,1","1",,,,,"955","338227"
"I005","9",,"April6 2019","Male",,"dynamic","audio-keyboard-response","141","sound/6star.wav","2,6,3,1",,"6","254",,,"null","339734"
"I005","9",,"April6 2019","Male",,"dynamic","html-button-response","142",,"2,6,3,1","3",,,,,"1074","340824"
"I005","9",,"April6 2019","Male",,"dynamic","audio-keyboard-response","143","sound/8star.wav","2,6,3,1",,"8","262",,,"null","342329"
"I005","9",,"April6 2019","Male",,"dynamic","html-button-response","144",,"2,6,3,1","2",,,,,"1764","344099"
"I005","9",,"April6 2019","Male",,"dynamic","audio-keyboard-response","145","sound/3star.wav","2,6,3,1",,"3","265",,,"null","345606"
"I005","9",,"April6 2019","Male",,"dynamic","html-button-response","146",,"2,6,3,1","0",,,,,"1313","346927"
"I005","9",,"April6 2019","Male",,"dynamic","audio-keyboard-response","147","sound/2star.wav","2,6,3,1",,"2","267",,,"null","348433"
"I005","9",,"April6 2019","Male",,"dynamic","html-button-response","148",,"2,6,3,1","1",,,,,"1032","349475"
"I005","9",,"April6 2019","Male",,"dynamic","audio-keyboard-response","149","sound/6star.wav","2,6,3,1",,"6","273",,,"null","350982"
"I005","9",,"April6 2019","Male",,"dynamic","html-button-response","150",,"2,6,3,1","3",,,,,"1618","352609"
"I005","9",,"April6 2019","Male",,"dynamic","audio-keyboard-response","151","sound/8star.wav","2,6,3,1",,"8","281",,,"null","354113"
"I005","9",,"April6 2019","Male",,"dynamic","html-button-response","152",,"2,6,3,1","3",,,,,"8948","363070"
"I005","9",,"April6 2019","Male",,"dynamic","audio-keyboard-response","153","sound/8star.wav","2,6,3,1",,"8","289",,,"null","364573"
"I005","9",,"April6 2019","Male",,"dynamic","html-button-response","154",,"2,6,3,1","0",,,,,"1530","366113"
"I005","9",,"April6 2019","Male",,"dynamic","audio-keyboard-response","155","sound/2star.wav","2,6,3,1",,"2","291",,,"null","367618"
"I005","9",,"April6 2019","Male",,"dynamic","html-button-response","156",,"2,6,3,1","2",,,,,"1124","368751"
"I005","9",,"April6 2019","Male",,"dynamic","audio-keyboard-response","157","sound/3star.wav","2,6,3,1",,"3","294",,,"null","370256"
"I005","9",,"April6 2019","Male",,"dynamic","html-button-response","158",,"2,6,3,1","1",,,,,"1442","371706"
"I005","9",,"April6 2019","Male",,"dynamic","audio-keyboard-response","159","sound/6star.wav","2,6,3,1",,"6","300",,,"null","373211"
"I005","9",,"April6 2019","Male",,"dynamic","html-button-response","160",,"2,6,3,1","0",,,,,"2047","375269"
"I005","9",,"April6 2019","Male",,"dynamic","audio-keyboard-response","161","sound/2star.wav","2,6,3,1",,"2","302",,,"null","376773"
"I005","9",,"April6 2019","Male",,"dynamic","html-button-response","162",,"2,6,3,1","3",,,,,"1074","377859"
"I005","9",,"April6 2019","Male",,"dynamic","audio-keyboard-response","163","sound/8star.wav","2,6,3,1",,"8","310",,,"null","379365"
"I005","9",,"April6 2019","Male",,"dynamic","html-button-response","164",,"2,6,3,1","2",,,,,"1947","381323"
"I005","9",,"April6 2019","Male",,"dynamic","audio-keyboard-response","165","sound/3star.wav","2,6,3,1",,"3","313",,,"null","382828"
"I005","9",,"April6 2019","Male",,"dynamic","audio-button-response","166","sound/celebration.wav","2,6,3,1","0",,,,,"12532","395372"
"I005","9",,"April6 2019","Male",,"dynamic","html-button-response","167","Which, if any, of these monsters ever gave you <b>1 star</b>?</p>","2,6,3,1","3",,,"correct",,"10768","406151"
"I005","9",,"April6 2019","Male",,"dynamic","html-button-response","168","Which, if any, of these monsters ever gave you <b>2 stars</b>?</p>","2,6,3,1","0",,,"correct",,"4683","411645"
"I005","9",,"April6 2019","Male",,"dynamic","html-button-response","169","Which, if any, of these monsters ever gave you <b>3 stars</b>?</p>","2,6,3,1","2",,,"correct",,"3816","416271"
"I005","9",,"April6 2019","Male",,"dynamic","html-button-response","170","Which, if any, of these monsters ever gave you <b>6 stars</b>?</p>","2,6,3,1","1",,,"correct",,"3555","420838"
"I005","9",,"April6 2019","Male",,"dynamic","html-button-response","171","Which, if any, of these monsters ever gave you <b>8 stars</b>?</p>","2,6,3,1","3",,,"correct",,"3696","425347"
"I005","9",,"April6 2019","Male",,"dynamic","html-button-response","172","Which monster did you like the most?</p>","2,6,3,1","2",,,,,"4768","430926"
"I005","9",,"April6 2019","Male",,"dynamic","survey-text","173",,"2,6,3,1",,,,,"\{""Q0"":""Looked like from monster inc""\}","21791","453533"
"I006",,,"April 6 2019",,,"dynamic","html-button-response","0",,"3,1,2,6","0",,,,,"8935","8940"
"I006",,,"April 6 2019",,,"dynamic","animation","1",,"3,1,2,6",,,,,"[]",,"20949"
"I006",,,"April 6 2019",,,"dynamic","html-button-response","2","<img src='img/screen1d.png'></img>","3,1,2,6","0",,,,,"3492","24452"
"I006",,,"April 6 2019",,,"dynamic","animation","3",,"3,1,2,6",,,,,"[]",,"45259"
"I006",,,"April 6 2019",,,"dynamic","html-button-response","4","<img src='img/screen5e.jpg'></img>","3,1,2,6","0",,,,,"2212","47478"
"I006",,,"April 6 2019",,,"dynamic","html-button-response","5","<p align='center'></p>","3,1,2,6","0",,,,,"10183","57666"
"I006",,,"April 6 2019",,,"dynamic","html-button-response","6",,"3,1,2,6","2",,,,,"2915","60589"
"I006",,,"April 6 2019",,,"dynamic","audio-keyboard-response","7","sound/2star.wav","3,1,2,6",,"2","2",,,"null","62102"
"I006",,,"April 6 2019",,,"dynamic","html-button-response","8",,"3,1,2,6","3",,,,,"1926","64041"
"I006",,,"April 6 2019",,,"dynamic","audio-keyboard-response","9","sound/6star.wav","3,1,2,6",,"6","8",,,"null","65547"
"I006",,,"April 6 2019",,,"dynamic","html-button-response","10",,"3,1,2,6","0",,,,,"1396","66949"
"I006",,,"April 6 2019",,,"dynamic","audio-keyboard-response","11","sound/3star.wav","3,1,2,6",,"3","11",,,"null","68455"
"I006",,,"April 6 2019",,,"dynamic","html-button-response","12",,"3,1,2,6","1",,,,,"835","69300"
"I006",,,"April 6 2019",,,"dynamic","audio-keyboard-response","13","sound/1star.wav","3,1,2,6",,"1","12",,,"null","70803"
"I006",,,"April 6 2019",,,"dynamic","html-button-response","14",,"3,1,2,6","2",,,,,"1584","72398"
"I006",,,"April 6 2019",,,"dynamic","audio-keyboard-response","15","sound/2star.wav","3,1,2,6",,"2","14",,,"null","73904"
"I006",,,"April 6 2019",,,"dynamic","html-button-response","16",,"3,1,2,6","3",,,,,"833","74747"
"I006",,,"April 6 2019",,,"dynamic","audio-keyboard-response","17","sound/6star.wav","3,1,2,6",,"6","20",,,"null","76253"
"I006",,,"April 6 2019",,,"dynamic","html-button-response","18",,"3,1,2,6","0",,,,,"1428","77689"
"I006",,,"April 6 2019",,,"dynamic","audio-keyboard-response","19","sound/3star.wav","3,1,2,6",,"3","23",,,"null","79196"
"I006",,,"April 6 2019",,,"dynamic","html-button-response","20",,"3,1,2,6","1",,,,,"787","79991"
"I006",,,"April 6 2019",,,"dynamic","audio-keyboard-response","21","sound/1star.wav","3,1,2,6",,"1","24",,,"null","81496"
"I006",,,"April 6 2019",,,"dynamic","html-button-response","22",,"3,1,2,6","2",,,,,"1273","82776"
"I006",,,"April 6 2019",,,"dynamic","audio-keyboard-response","23","sound/2star.wav","3,1,2,6",,"2","26",,,"null","84282"
"I006",,,"April 6 2019",,,"dynamic","html-button-response","24",,"3,1,2,6","3",,,,,"880","85171"
"I006",,,"April 6 2019",,,"dynamic","audio-keyboard-response","25","sound/6star.wav","3,1,2,6",,"6","32",,,"null","86676"
"I006",,,"April 6 2019",,,"dynamic","html-button-response","26",,"3,1,2,6","0",,,,,"1207","87891"
"I006",,,"April 6 2019",,,"dynamic","audio-keyboard-response","27","sound/3star.wav","3,1,2,6",,"3","35",,,"null","89397"
"I006",,,"April 6 2019",,,"dynamic","html-button-response","28",,"3,1,2,6","2",,,,,"1090","90496"
"I006",,,"April 6 2019",,,"dynamic","audio-keyboard-response","29","sound/2star.wav","3,1,2,6",,"2","37",,,"null","92000"
"I006",,,"April 6 2019",,,"dynamic","html-button-response","30",,"3,1,2,6","3",,,,,"915","92929"
"I006",,,"April 6 2019",,,"dynamic","audio-keyboard-response","31","sound/6star.wav","3,1,2,6",,"6","43",,,"null","94434"
"I006",,,"April 6 2019",,,"dynamic","html-button-response","32",,"3,1,2,6","1",,,,,"1032","95475"
"I006",,,"April 6 2019",,,"dynamic","audio-keyboard-response","33","sound/1star.wav","3,1,2,6",,"1","44",,,"null","96980"
"I006",,,"April 6 2019",,,"dynamic","html-button-response","34",,"3,1,2,6","3",,,,,"990","97981"
"I006",,,"April 6 2019",,,"dynamic","audio-keyboard-response","35","sound/6star.wav","3,1,2,6",,"6","50",,,"null","99486"
"I006",,,"April 6 2019",,,"dynamic","html-button-response","36",,"3,1,2,6","0",,,,,"1186","100681"
"I006",,,"April 6 2019",,,"dynamic","audio-keyboard-response","37","sound/3star.wav","3,1,2,6",,"3","53",,,"null","102189"
"I006",,,"April 6 2019",,,"dynamic","html-button-response","38",,"3,1,2,6","2",,,,,"1070","103268"
"I006",,,"April 6 2019",,,"dynamic","audio-keyboard-response","39","sound/2star.wav","3,1,2,6",,"2","55",,,"null","104772"
"I006",,,"April 6 2019",,,"dynamic","html-button-response","40",,"3,1,2,6","3",,,,,"768","105554"
"I006",,,"April 6 2019",,,"dynamic","audio-keyboard-response","41","sound/6star.wav","3,1,2,6",,"6","61",,,"null","107056"
"I006",,,"April 6 2019",,,"dynamic","html-button-response","42",,"3,1,2,6","1",,,,,"956","108019"
"I006",,,"April 6 2019",,,"dynamic","audio-keyboard-response","43","sound/1star.wav","3,1,2,6",,"1","62",,,"null","109522"
"I006",,,"April 6 2019",,,"dynamic","html-button-response","44",,"3,1,2,6","0",,,,,"912","110440"
"I006",,,"April 6 2019",,,"dynamic","audio-keyboard-response","45","sound/3star.wav","3,1,2,6",,"3","65",,,"null","111946"
"I006",,,"April 6 2019",,,"dynamic","html-button-response","46",,"3,1,2,6","3",,,,,"756","112712"
"I006",,,"April 6 2019",,,"dynamic","audio-keyboard-response","47","sound/6star.wav","3,1,2,6",,"6","71",,,"null","114217"
"I006",,,"April 6 2019",,,"dynamic","html-button-response","48",,"3,1,2,6","3",,,,,"1335","115558"
"I006",,,"April 6 2019",,,"dynamic","audio-keyboard-response","49","sound/6star.wav","3,1,2,6",,"6","77",,,"null","117061"
"I006",,,"April 6 2019",,,"dynamic","html-button-response","50",,"3,1,2,6","1",,,,,"839","117905"
"I006",,,"April 6 2019",,,"dynamic","audio-keyboard-response","51","sound/1star.wav","3,1,2,6",,"1","78",,,"null","119410"
"I006",,,"April 6 2019",,,"dynamic","html-button-response","52",,"3,1,2,6","2",,,,,"827","120249"
"I006",,,"April 6 2019",,,"dynamic","audio-keyboard-response","53","sound/2star.wav","3,1,2,6",,"2","80",,,"null","121752"
"I006",,,"April 6 2019",,,"dynamic","html-button-response","54",,"3,1,2,6","0",,,,,"848","122610"
"I006",,,"April 6 2019",,,"dynamic","audio-keyboard-response","55","sound/3star.wav","3,1,2,6",,"3","83",,,"null","124116"
"I006",,,"April 6 2019",,,"dynamic","html-button-response","56",,"3,1,2,6","3",,,,,"863","124989"
"I006",,,"April 6 2019",,,"dynamic","audio-keyboard-response","57","sound/6star.wav","3,1,2,6",,"6","89",,,"null","126494"
"I006",,,"April 6 2019",,,"dynamic","html-button-response","58",,"3,1,2,6","1",,,,,"1279","127779"
"I006",,,"April 6 2019",,,"dynamic","audio-keyboard-response","59","sound/1star.wav","3,1,2,6",,"1","90",,,"null","129285"
"I006",,,"April 6 2019",,,"dynamic","html-button-response","60",,"3,1,2,6","0",,,,,"879","130170"
"I006",,,"April 6 2019",,,"dynamic","audio-keyboard-response","61","sound/3star.wav","3,1,2,6",,"3","93",,,"null","131678"
"I006",,,"April 6 2019",,,"dynamic","html-button-response","62",,"3,1,2,6","2",,,,,"1141","132829"
"I006",,,"April 6 2019",,,"dynamic","audio-keyboard-response","63","sound/2star.wav","3,1,2,6",,"2","95",,,"null","134334"
"I006",,,"April 6 2019",,,"dynamic","html-button-response","64",,"3,1,2,6","1",,,,,"2063","136406"
"I006",,,"April 6 2019",,,"dynamic","audio-keyboard-response","65","sound/1star.wav","3,1,2,6",,"1","96",,,"null","137973"
"I006",,,"April 6 2019",,,"dynamic","html-button-response","66",,"3,1,2,6","3",,,,,"806","138787"
"I006",,,"April 6 2019",,,"dynamic","audio-keyboard-response","67","sound/6star.wav","3,1,2,6",,"6","102",,,"null","140290"
"I006",,,"April 6 2019",,,"dynamic","html-button-response","68",,"3,1,2,6","0",,,,,"1251","141551"
"I006",,,"April 6 2019",,,"dynamic","audio-keyboard-response","69","sound/3star.wav","3,1,2,6",,"3","105",,,"null","143056"
"I006",,,"April 6 2019",,,"dynamic","html-button-response","70",,"3,1,2,6","3",,,,,"826","143892"
"I006",,,"April 6 2019",,,"dynamic","audio-keyboard-response","71","sound/6star.wav","3,1,2,6",,"6","111",,,"null","145400"
"I006",,,"April 6 2019",,,"dynamic","html-button-response","72",,"3,1,2,6","2",,,,,"793","146203"
"I006",,,"April 6 2019",,,"dynamic","audio-keyboard-response","73","sound/2star.wav","3,1,2,6",,"2","113",,,"null","147705"
"I006",,,"April 6 2019",,,"dynamic","html-button-response","74",,"3,1,2,6","1",,,,,"577","148299"
"I006",,,"April 6 2019",,,"dynamic","audio-keyboard-response","75","sound/1star.wav","3,1,2,6",,"1","114",,,"null","149805"
"I006",,,"April 6 2019",,,"dynamic","html-button-response","76",,"3,1,2,6","3",,,,,"663","150476"
"I006",,,"April 6 2019",,,"dynamic","audio-keyboard-response","77","sound/6star.wav","3,1,2,6",,"6","120",,,"null","151980"
"I006",,,"April 6 2019",,,"dynamic","html-button-response","78",,"3,1,2,6","0",,,,,"1208","153198"
"I006",,,"April 6 2019",,,"dynamic","audio-keyboard-response","79","sound/3star.wav","3,1,2,6",,"3","123",,,"null","154703"
"I006",,,"April 6 2019",,,"dynamic","html-button-response","80",,"3,1,2,6","2",,,,,"1176","155890"
"I006",,,"April 6 2019",,,"dynamic","audio-keyboard-response","81","sound/2star.wav","3,1,2,6",,"2","125",,,"null","157397"
"I006",,,"April 6 2019",,,"dynamic","html-button-response","82",,"3,1,2,6","1",,,,,"809","158215"
"I006",,,"April 6 2019",,,"dynamic","audio-keyboard-response","83","sound/1star.wav","3,1,2,6",,"1","126",,,"null","159718"
"I006",,,"April 6 2019",,,"dynamic","html-button-response","84",,"3,1,2,6","3",,,,,"814","160542"
"I006",,,"April 6 2019",,,"dynamic","audio-keyboard-response","85","sound/6star.wav","3,1,2,6",,"6","132",,,"null","162048"
"I006",,,"April 6 2019",,,"dynamic","html-button-response","86",,"3,1,2,6","2",,,,,"1331","163391"
"I006",,,"April 6 2019",,,"dynamic","audio-keyboard-response","87","sound/2star.wav","3,1,2,6",,"2","134",,,"null","164896"
"I006",,,"April 6 2019",,,"dynamic","html-button-response","88",,"3,1,2,6","3",,,,,"688","165613"
"I006",,,"April 6 2019",,,"dynamic","audio-keyboard-response","89","sound/6star.wav","3,1,2,6",,"6","140",,,"null","167116"
"I006",,,"April 6 2019",,,"dynamic","html-button-response","90",,"3,1,2,6","1",,,,,"875","167996"
"I006",,,"April 6 2019",,,"dynamic","audio-keyboard-response","91","sound/8star.wav","3,1,2,6",,"8","148",,,"null","169499"
"I006",,,"April 6 2019",,,"dynamic","html-button-response","92",,"3,1,2,6","0",,,,,"1443","170947"
"I006",,,"April 6 2019",,,"dynamic","audio-keyboard-response","93","sound/3star.wav","3,1,2,6",,"3","151",,,"null","172452"
"I006",,,"April 6 2019",,,"dynamic","html-button-response","94",,"3,1,2,6","2",,,,,"856","173316"
"I006",,,"April 6 2019",,,"dynamic","audio-keyboard-response","95","sound/2star.wav","3,1,2,6",,"2","153",,,"null","174819"
"I006",,,"April 6 2019",,,"dynamic","html-button-response","96",,"3,1,2,6","1",,,,,"628","175454"
"I006",,,"April 6 2019",,,"dynamic","audio-keyboard-response","97","sound/8star.wav","3,1,2,6",,"8","161",,,"null","176958"
"I006",,,"April 6 2019",,,"dynamic","html-button-response","98",,"3,1,2,6","3",,,,,"1016","177981"
"I006",,,"April 6 2019",,,"dynamic","audio-keyboard-response","99","sound/6star.wav","3,1,2,6",,"6","167",,,"null","179508"
"I006",,,"April 6 2019",,,"dynamic","html-button-response","100",,"3,1,2,6","2",,,,,"1068","180585"
"I006",,,"April 6 2019",,,"dynamic","audio-keyboard-response","101","sound/2star.wav","3,1,2,6",,"2","169",,,"null","182088"
"I006",,,"April 6 2019",,,"dynamic","html-button-response","102",,"3,1,2,6","0",,,,,"762","182859"
"I006",,,"April 6 2019",,,"dynamic","audio-keyboard-response","103","sound/3star.wav","3,1,2,6",,"3","172",,,"null","184363"
"I006",,,"April 6 2019",,,"dynamic","html-button-response","104",,"3,1,2,6","1",,,,,"707","185079"
"I006",,,"April 6 2019",,,"dynamic","audio-keyboard-response","105","sound/8star.wav","3,1,2,6",,"8","180",,,"null","186582"
"I006",,,"April 6 2019",,,"dynamic","html-button-response","106",,"3,1,2,6","3",,,,,"933","187523"
"I006",,,"April 6 2019",,,"dynamic","audio-keyboard-response","107","sound/6star.wav","3,1,2,6",,"6","186",,,"null","189027"
"I006",,,"April 6 2019",,,"dynamic","html-button-response","108",,"3,1,2,6","1",,,,,"1615","190649"
"I006",,,"April 6 2019",,,"dynamic","audio-keyboard-response","109","sound/8star.wav","3,1,2,6",,"8","194",,,"null","192155"
"I006",,,"April 6 2019",,,"dynamic","html-button-response","110",,"3,1,2,6","0",,,,,"3704","195866"
"I006",,,"April 6 2019",,,"dynamic","audio-keyboard-response","111","sound/3star.wav","3,1,2,6",,"3","197",,,"null","197371"
"I006",,,"April 6 2019",,,"dynamic","html-button-response","112",,"3,1,2,6","1",,,,,"875","198254"
"I006",,,"April 6 2019",,,"dynamic","audio-keyboard-response","113","sound/8star.wav","3,1,2,6",,"8","205",,,"null","199758"
"I006",,,"April 6 2019",,,"dynamic","html-button-response","114",,"3,1,2,6","3",,,,,"1105","200872"
"I006",,,"April 6 2019",,,"dynamic","audio-keyboard-response","115","sound/6star.wav","3,1,2,6",,"6","211",,,"null","202376"
"I006",,,"April 6 2019",,,"dynamic","html-button-response","116",,"3,1,2,6","2",,,,,"932","203317"
"I006",,,"April 6 2019",,,"dynamic","audio-keyboard-response","117","sound/2star.wav","3,1,2,6",,"2","213",,,"null","204821"
"I006",,,"April 6 2019",,,"dynamic","html-button-response","118",,"3,1,2,6","1",,,,,"725","205551"
"I006",,,"April 6 2019",,,"dynamic","audio-keyboard-response","119","sound/8star.wav","3,1,2,6",,"8","221",,,"null","207055"
"I006",,,"April 6 2019",,,"dynamic","html-button-response","120",,"3,1,2,6","0",,,,,"1253","208317"
"I006",,,"April 6 2019",,,"dynamic","audio-keyboard-response","121","sound/3star.wav","3,1,2,6",,"3","224",,,"null","209820"
"I006",,,"April 6 2019",,,"dynamic","html-button-response","122",,"3,1,2,6","2",,,,,"810","210636"
"I006",,,"April 6 2019",,,"dynamic","audio-keyboard-response","123","sound/2star.wav","3,1,2,6",,"2","226",,,"null","212142"
"I006",,,"April 6 2019",,,"dynamic","html-button-response","124",,"3,1,2,6","3",,,,,"751","212902"
"I006",,,"April 6 2019",,,"dynamic","audio-keyboard-response","125","sound/6star.wav","3,1,2,6",,"6","232",,,"null","214419"
"I006",,,"April 6 2019",,,"dynamic","html-button-response","126",,"3,1,2,6","0",,,,,"1045","215485"
"I006",,,"April 6 2019",,,"dynamic","audio-keyboard-response","127","sound/3star.wav","3,1,2,6",,"3","235",,,"null","216988"
"I006",,,"April 6 2019",,,"dynamic","html-button-response","128",,"3,1,2,6","3",,,,,"763","217761"
"I006",,,"April 6 2019",,,"dynamic","audio-keyboard-response","129","sound/6star.wav","3,1,2,6",,"6","241",,,"null","219264"
"I006",,,"April 6 2019",,,"dynamic","html-button-response","130",,"3,1,2,6","1",,,,,"777","220050"
"I006",,,"April 6 2019",,,"dynamic","audio-keyboard-response","131","sound/8star.wav","3,1,2,6",,"8","249",,,"null","221554"
"I006",,,"April 6 2019",,,"dynamic","html-button-response","132",,"3,1,2,6","2",,,,,"1407","222973"
"I006",,,"April 6 2019",,,"dynamic","audio-keyboard-response","133","sound/2star.wav","3,1,2,6",,"2","251",,,"null","224477"
"I006",,,"April 6 2019",,,"dynamic","html-button-response","134",,"3,1,2,6","0",,,,,"991","225480"
"I006",,,"April 6 2019",,,"dynamic","audio-keyboard-response","135","sound/3star.wav","3,1,2,6",,"3","254",,,"null","226985"
"I006",,,"April 6 2019",,,"dynamic","html-button-response","136",,"3,1,2,6","3",,,,,"685","227675"
"I006",,,"April 6 2019",,,"dynamic","audio-keyboard-response","137","sound/6star.wav","3,1,2,6",,"6","260",,,"null","229180"
"I006",,,"April 6 2019",,,"dynamic","html-button-response","138",,"3,1,2,6","1",,,,,"898","230086"
"I006",,,"April 6 2019",,,"dynamic","audio-keyboard-response","139","sound/8star.wav","3,1,2,6",,"8","268",,,"null","231591"
"I006",,,"April 6 2019",,,"dynamic","html-button-response","140",,"3,1,2,6","0",,,,,"1577","233177"
"I006",,,"April 6 2019",,,"dynamic","audio-keyboard-response","141","sound/3star.wav","3,1,2,6",,"3","271",,,"null","234681"
"I006",,,"April 6 2019",,,"dynamic","html-button-response","142",,"3,1,2,6","3",,,,,"834","235519"
"I006",,,"April 6 2019",,,"dynamic","audio-keyboard-response","143","sound/6star.wav","3,1,2,6",,"6","277",,,"null","237024"
"I006",,,"April 6 2019",,,"dynamic","html-button-response","144",,"3,1,2,6","2",,,,,"1256","238288"
"I006",,,"April 6 2019",,,"dynamic","audio-keyboard-response","145","sound/2star.wav","3,1,2,6",,"2","279",,,"null","239792"
"I006",,,"April 6 2019",,,"dynamic","html-button-response","146",,"3,1,2,6","1",,,,,"1017","240819"
"I006",,,"April 6 2019",,,"dynamic","audio-keyboard-response","147","sound/8star.wav","3,1,2,6",,"8","287",,,"null","242324"
"I006",,,"April 6 2019",,,"dynamic","html-button-response","148",,"3,1,2,6","1",,,,,"1663","243995"
"I006",,,"April 6 2019",,,"dynamic","audio-keyboard-response","149","sound/8star.wav","3,1,2,6",,"8","295",,,"null","245501"
"I006",,,"April 6 2019",,,"dynamic","html-button-response","150",,"3,1,2,6","3",,,,,"1101","246607"
"I006",,,"April 6 2019",,,"dynamic","audio-keyboard-response","151","sound/6star.wav","3,1,2,6",,"6","301",,,"null","248113"
"I006",,,"April 6 2019",,,"dynamic","html-button-response","152",,"3,1,2,6","2",,,,,"814","248935"
"I006",,,"April 6 2019",,,"dynamic","audio-keyboard-response","153","sound/2star.wav","3,1,2,6",,"2","303",,,"null","250440"
"I006",,,"April 6 2019",,,"dynamic","html-button-response","154",,"3,1,2,6","0",,,,,"638","251086"
