subjID,age,dob,dot,gender,language,condition,trial_type,trial_index,stimulus,pointvals_firsthalf,button_pressed,earnedThis,earnedCumulative,posttest,responses,time_elapsed
I025,NA,NA,6/7/19,NA,NA,static,html-button-response,52,NA,6312,3,NA,NA,NA,NA,751149
I025,NA,NA,6/7/19,NA,NA,static,audio-keyboard-response,51,sound/3star.wav,6312,NA,3,70,NA,NA,750303
I025,NA,NA,6/7/19,NA,NA,static,html-button-response,28,NA,6312,1,NA,NA,NA,NA,718402
I025,NA,NA,6/7/19,NA,NA,static,audio-keyboard-response,53,sound/2star.wav,6312,NA,2,72,NA,NA,752653
I025,NA,NA,6/7/19,NA,NA,static,html-button-response,0,NA,6312,0,NA,NA,NA,NA,618211
I025,NA,NA,6/7/19,NA,NA,static,audio-keyboard-response,31,sound/6star.wav,6312,NA,6,42,NA,NA,722596
I025,NA,NA,6/7/19,NA,NA,static,html-button-response,32,NA,6312,3,NA,NA,NA,NA,723598
I025,NA,NA,6/7/19,NA,NA,static,audio-keyboard-response,29,sound/3star.wav,6312,NA,3,36,NA,NA,719906
I025,NA,NA,6/7/19,NA,NA,static,html-button-response,30,NA,6312,0,NA,NA,NA,NA,721090
I025,NA,NA,6/7/19,NA,NA,static,audio-keyboard-response,35,sound/1star.wav,6312,NA,1,45,NA,NA,727439
I025,NA,NA,6/7/19,NA,NA,static,html-button-response,36,NA,6312,1,NA,NA,NA,NA,728333
I025,NA,NA,6/7/19,NA,NA,static,audio-keyboard-response,37,sound/3star.wav,6312,NA,3,48,NA,NA,729840
I025,NA,NA,6/7/19,NA,NA,static,html-button-response,38,NA,6312,0,NA,NA,NA,NA,731006
I025,NA,NA,6/7/19,NA,NA,static,audio-keyboard-response,39,sound/6star.wav,6312,NA,6,54,NA,NA,732510
I025,NA,NA,6/7/19,NA,NA,static,html-button-response,40,NA,6312,2,NA,NA,NA,NA,734028
I025,NA,NA,6/7/19,NA,NA,static,audio-keyboard-response,41,sound/1star.wav,6312,NA,1,55,NA,NA,735535
I025,NA,NA,6/7/19,NA,NA,static,html-button-response,42,NA,6312,3,NA,NA,NA,NA,736892
I025,NA,NA,6/7/19,NA,NA,static,audio-keyboard-response,43,sound/2star.wav,6312,NA,2,57,NA,NA,738396
I025,NA,NA,6/7/19,NA,NA,static,html-button-response,44,NA,6312,1,NA,NA,NA,NA,739655
I025,NA,NA,6/7/19,NA,NA,static,audio-keyboard-response,45,sound/3star.wav,6312,NA,3,60,NA,NA,741160
I025,NA,NA,6/7/19,NA,NA,static,audio-keyboard-response,33,sound/2star.wav,6312,NA,2,44,NA,NA,725103
I025,NA,NA,6/7/19,NA,NA,static,html-button-response,34,NA,6312,2,NA,NA,NA,NA,725932
I025,NA,NA,6/7/19,NA,NA,static,html-button-response,48,NA,6312,2,NA,NA,NA,NA,745379
I025,NA,NA,6/7/19,NA,NA,static,audio-keyboard-response,49,sound/1star.wav,6312,NA,1,67,NA,NA,746883
I025,NA,NA,6/7/19,NA,NA,static,html-button-response,50,NA,6312,1,NA,NA,NA,NA,748795
I025,NA,NA,6/7/19,NA,NA,static,html-button-response,170,"Which, if any, of these monsters ever gave you <b>6 stars</b>?</p>",6312,0,NA,NA,correct,NA,939573
I025,NA,NA,6/7/19,NA,NA,static,html-button-response,171,"Which, if any, of these monsters ever gave you <b>8 stars</b>?</p>",6312,4,NA,NA,correct,NA,946241
I025,NA,NA,6/7/19,NA,NA,static,html-button-response,54,NA,6312,2,NA,NA,NA,NA,754568
I025,NA,NA,6/7/19,NA,NA,static,audio-keyboard-response,55,sound/1star.wav,6312,NA,1,73,NA,NA,756071
I025,NA,NA,6/7/19,NA,NA,static,html-button-response,56,NA,6312,3,NA,NA,NA,NA,756919
I025,NA,NA,6/7/19,NA,NA,static,audio-keyboard-response,57,sound/2star.wav,6312,NA,2,75,NA,NA,758424
I025,NA,NA,6/7/19,NA,NA,static,html-button-response,58,NA,6312,1,NA,NA,NA,NA,759353
I025,NA,NA,6/7/19,NA,NA,static,audio-keyboard-response,59,sound/3star.wav,6312,NA,3,78,NA,NA,760859
I025,NA,NA,6/7/19,NA,NA,static,html-button-response,46,NA,6312,0,NA,NA,NA,NA,742195
I025,NA,NA,6/7/19,NA,NA,static,audio-keyboard-response,47,sound/6star.wav,6312,NA,6,66,NA,NA,743706
I025,NA,NA,6/7/19,NA,NA,static,audio-keyboard-response,61,sound/6star.wav,6312,NA,6,84,NA,NA,763280
I025,NA,NA,6/7/19,NA,NA,static,html-button-response,62,NA,6312,0,NA,NA,NA,NA,764424
I025,NA,NA,6/7/19,NA,NA,static,audio-keyboard-response,63,sound/6star.wav,6312,NA,6,90,NA,NA,765973
I025,NA,NA,6/7/19,NA,NA,static,html-button-response,64,NA,6312,1,NA,NA,NA,NA,772049
I025,NA,NA,6/7/19,NA,NA,static,audio-keyboard-response,65,sound/3star.wav,6312,NA,3,93,NA,NA,773554
I025,NA,NA,6/7/19,NA,NA,static,html-button-response,66,NA,6312,2,NA,NA,NA,NA,774367
I025,NA,NA,6/7/19,NA,NA,static,audio-keyboard-response,67,sound/1star.wav,6312,NA,1,94,NA,NA,775872
I025,NA,NA,6/7/19,NA,NA,static,html-button-response,68,NA,6312,3,NA,NA,NA,NA,776730
I025,NA,NA,6/7/19,NA,NA,static,audio-keyboard-response,69,sound/2star.wav,6312,NA,2,96,NA,NA,778235
I025,NA,NA,6/7/19,NA,NA,static,html-button-response,70,NA,6312,0,NA,NA,NA,NA,779191
I025,NA,NA,6/7/19,NA,NA,static,audio-keyboard-response,71,sound/6star.wav,6312,NA,6,102,NA,NA,780697
I025,NA,NA,6/7/19,NA,NA,static,html-button-response,72,NA,6312,1,NA,NA,NA,NA,782602
I025,NA,NA,6/7/19,NA,NA,static,audio-keyboard-response,73,sound/3star.wav,6312,NA,3,105,NA,NA,784106
I025,NA,NA,6/7/19,NA,NA,static,html-button-response,74,NA,6312,2,NA,NA,NA,NA,784849
I025,NA,NA,6/7/19,NA,NA,static,audio-keyboard-response,75,sound/1star.wav,6312,NA,1,106,NA,NA,786356
I025,NA,NA,6/7/19,NA,NA,static,html-button-response,76,NA,6312,3,NA,NA,NA,NA,787103
I025,NA,NA,6/7/19,NA,NA,static,audio-keyboard-response,77,sound/2star.wav,6312,NA,2,108,NA,NA,788608
I025,NA,NA,6/7/19,NA,NA,static,html-button-response,78,NA,6312,2,NA,NA,NA,NA,789333
I025,NA,NA,6/7/19,NA,NA,static,audio-keyboard-response,79,sound/1star.wav,6312,NA,1,109,NA,NA,790838
I025,NA,NA,6/7/19,NA,NA,static,html-button-response,80,NA,6312,3,NA,NA,NA,NA,792213
I025,NA,NA,6/7/19,NA,NA,static,audio-keyboard-response,81,sound/2star.wav,6312,NA,2,111,NA,NA,793718
I025,NA,NA,6/7/19,NA,NA,static,html-button-response,82,NA,6312,0,NA,NA,NA,NA,794652
I025,NA,NA,6/7/19,NA,NA,static,audio-keyboard-response,83,sound/6star.wav,6312,NA,6,117,NA,NA,796157
I025,NA,NA,6/7/19,NA,NA,static,html-button-response,84,NA,6312,1,NA,NA,NA,NA,797172
I025,NA,NA,6/7/19,NA,NA,static,audio-keyboard-response,85,sound/3star.wav,6312,NA,3,120,NA,NA,798676
I025,NA,NA,6/7/19,NA,NA,static,html-button-response,86,NA,6312,3,NA,NA,NA,NA,799892
I025,NA,NA,6/7/19,NA,NA,static,audio-keyboard-response,87,sound/2star.wav,6312,NA,2,122,NA,NA,801399
I025,NA,NA,6/7/19,NA,NA,static,html-button-response,88,NA,6312,2,NA,NA,NA,NA,802405
I025,NA,NA,6/7/19,NA,NA,static,audio-keyboard-response,89,sound/1star.wav,6312,NA,1,123,NA,NA,803911
I025,NA,NA,6/7/19,NA,NA,static,html-button-response,90,NA,6312,0,NA,NA,NA,NA,804604
I025,NA,NA,6/7/19,NA,NA,static,audio-keyboard-response,91,sound/6star.wav,6312,NA,6,129,NA,NA,806108
I025,NA,NA,6/7/19,NA,NA,static,html-button-response,92,NA,6312,1,NA,NA,NA,NA,807012
I025,NA,NA,6/7/19,NA,NA,static,html-button-response,172,Which monster did you like the most?</p>,6312,2,NA,NA,NA,NA,950734
I025,NA,NA,6/7/19,NA,NA,static,survey-text,173,NA,6312,NA,NA,NA,NA,"{""Q0"":""Favorite color""}",967855
I025,NA,NA,6/7/19,NA,NA,static,html-button-response,14,NA,6312,2,NA,NA,NA,NA,695688
I025,NA,NA,6/7/19,NA,NA,static,audio-keyboard-response,15,sound/1star.wav,6312,NA,1,13,NA,NA,697193
I025,NA,NA,6/7/19,NA,NA,static,html-button-response,16,NA,6312,1,NA,NA,NA,NA,698684
I025,NA,NA,6/7/19,NA,NA,static,audio-keyboard-response,17,sound/3star.wav,6312,NA,3,16,NA,NA,700190
I025,NA,NA,6/7/19,NA,NA,static,html-button-response,18,NA,6312,0,NA,NA,NA,NA,701603
I025,NA,NA,6/7/19,NA,NA,static,html-button-response,60,NA,6312,0,NA,NA,NA,NA,761775
I025,NA,NA,6/7/19,NA,NA,static,html-button-response,100,NA,6312,1,NA,NA,NA,NA,817017
I025,NA,NA,6/7/19,NA,NA,static,audio-keyboard-response,101,sound/3star.wav,6312,NA,3,144,NA,NA,818521
I025,NA,NA,6/7/19,NA,NA,static,html-button-response,102,NA,6312,2,NA,NA,NA,NA,819505
I025,NA,NA,6/7/19,NA,NA,static,audio-keyboard-response,103,sound/1star.wav,6312,NA,1,145,NA,NA,821009
I025,NA,NA,6/7/19,NA,NA,static,html-button-response,104,NA,6312,3,NA,NA,NA,NA,821985
I025,NA,NA,6/7/19,NA,NA,static,audio-keyboard-response,105,sound/2star.wav,6312,NA,2,147,NA,NA,823496
I025,NA,NA,6/7/19,NA,NA,static,html-button-response,106,NA,6312,0,NA,NA,NA,NA,825508
I025,NA,NA,6/7/19,NA,NA,static,audio-keyboard-response,107,sound/6star.wav,6312,NA,6,153,NA,NA,827015
I025,NA,NA,6/7/19,NA,NA,static,html-button-response,108,NA,6312,1,NA,NA,NA,NA,828493
I025,NA,NA,6/7/19,NA,NA,static,audio-keyboard-response,109,sound/3star.wav,6312,NA,3,156,NA,NA,829996
I025,NA,NA,6/7/19,NA,NA,static,html-button-response,110,NA,6312,2,NA,NA,NA,NA,831190
I025,NA,NA,6/7/19,NA,NA,static,audio-keyboard-response,111,sound/1star.wav,6312,NA,1,157,NA,NA,832693
I025,NA,NA,6/7/19,NA,NA,static,html-button-response,112,NA,6312,3,NA,NA,NA,NA,833517
I025,NA,NA,6/7/19,NA,NA,static,audio-keyboard-response,113,sound/2star.wav,6312,NA,2,159,NA,NA,835020
I025,NA,NA,6/7/19,NA,NA,static,html-button-response,114,NA,6312,1,NA,NA,NA,NA,835779
I025,NA,NA,6/7/19,NA,NA,static,audio-keyboard-response,115,sound/3star.wav,6312,NA,3,162,NA,NA,837284
I025,NA,NA,6/7/19,NA,NA,static,html-button-response,116,NA,6312,0,NA,NA,NA,NA,844352
I025,NA,NA,6/7/19,NA,NA,static,audio-keyboard-response,117,sound/6star.wav,6312,NA,6,168,NA,NA,845858
I025,NA,NA,6/7/19,NA,NA,static,html-button-response,118,NA,6312,1,NA,NA,NA,NA,847709
I025,NA,NA,6/7/19,NA,NA,static,audio-keyboard-response,119,sound/3star.wav,6312,NA,3,171,NA,NA,849214
I025,NA,NA,6/7/19,NA,NA,static,html-button-response,120,NA,6312,2,NA,NA,NA,NA,850044
I025,NA,NA,6/7/19,NA,NA,static,animation,1,NA,6312,NA,NA,NA,NA,[],630224
I025,NA,NA,6/7/19,NA,NA,static,html-button-response,2,<img src='img/screen1d.png'></img>,6312,0,NA,NA,NA,NA,633617
I025,NA,NA,6/7/19,NA,NA,static,animation,3,NA,6312,NA,NA,NA,NA,[],654419
I025,NA,NA,6/7/19,NA,NA,static,html-button-response,4,<img src='img/screen5e.jpg'></img>,6312,0,NA,NA,NA,NA,669533
I025,NA,NA,6/7/19,NA,NA,static,html-button-response,5,<p align='center'></p>,6312,0,NA,NA,NA,NA,671441
I025,NA,NA,6/7/19,NA,NA,static,html-button-response,6,NA,6312,2,NA,NA,NA,NA,676139
I025,NA,NA,6/7/19,NA,NA,static,audio-keyboard-response,7,sound/1star.wav,6312,NA,1,1,NA,NA,677659
I025,NA,NA,6/7/19,NA,NA,static,html-button-response,8,NA,6312,1,NA,NA,NA,NA,683520
I025,NA,NA,6/7/19,NA,NA,static,audio-keyboard-response,9,sound/3star.wav,6312,NA,3,4,NA,NA,685028
I025,NA,NA,6/7/19,NA,NA,static,html-button-response,10,NA,6312,0,NA,NA,NA,NA,688385
I025,NA,NA,6/7/19,NA,NA,static,audio-keyboard-response,11,sound/6star.wav,6312,NA,6,10,NA,NA,689890
I025,NA,NA,6/7/19,NA,NA,static,html-button-response,12,NA,6312,3,NA,NA,NA,NA,691347
I025,NA,NA,6/7/19,NA,NA,static,audio-keyboard-response,13,sound/2star.wav,6312,NA,2,12,NA,NA,692852
I025,NA,NA,6/7/19,NA,NA,static,audio-keyboard-response,93,sound/3star.wav,6312,NA,3,132,NA,NA,808522
I025,NA,NA,6/7/19,NA,NA,static,html-button-response,94,NA,6312,2,NA,NA,NA,NA,809327
I025,NA,NA,6/7/19,NA,NA,static,audio-keyboard-response,95,sound/1star.wav,6312,NA,1,133,NA,NA,810831
I025,NA,NA,6/7/19,NA,NA,static,html-button-response,96,NA,6312,3,NA,NA,NA,NA,811768
I025,NA,NA,6/7/19,NA,NA,static,audio-keyboard-response,97,sound/2star.wav,6312,NA,2,135,NA,NA,813272
I025,NA,NA,6/7/19,NA,NA,static,audio-keyboard-response,19,sound/6star.wav,6312,NA,6,22,NA,NA,703105
I025,NA,NA,6/7/19,NA,NA,static,html-button-response,20,NA,6312,3,NA,NA,NA,NA,705587
I025,NA,NA,6/7/19,NA,NA,static,audio-keyboard-response,21,sound/2star.wav,6312,NA,2,24,NA,NA,707102
I025,NA,NA,6/7/19,NA,NA,static,html-button-response,22,NA,6312,2,NA,NA,NA,NA,709087
I025,NA,NA,6/7/19,NA,NA,static,audio-keyboard-response,23,sound/1star.wav,6312,NA,1,25,NA,NA,710591
I025,NA,NA,6/7/19,NA,NA,static,html-button-response,24,NA,6312,0,NA,NA,NA,NA,711747
I025,NA,NA,6/7/19,NA,NA,static,audio-keyboard-response,25,sound/6star.wav,6312,NA,6,31,NA,NA,713253
I025,NA,NA,6/7/19,NA,NA,static,html-button-response,26,NA,6312,3,NA,NA,NA,NA,714529
I025,NA,NA,6/7/19,NA,NA,static,audio-keyboard-response,27,sound/2star.wav,6312,NA,2,33,NA,NA,716034
I025,NA,NA,6/7/19,NA,NA,static,audio-keyboard-response,147,sound/3star.wav,6312,NA,3,210,NA,NA,884577
I025,NA,NA,6/7/19,NA,NA,static,html-button-response,148,NA,6312,0,NA,NA,NA,NA,885301
I025,NA,NA,6/7/19,NA,NA,static,audio-keyboard-response,149,sound/6star.wav,6312,NA,6,216,NA,NA,886805
I025,NA,NA,6/7/19,NA,NA,static,html-button-response,150,NA,6312,2,NA,NA,NA,NA,887512
I025,NA,NA,6/7/19,NA,NA,static,audio-keyboard-response,151,sound/1star.wav,6312,NA,1,217,NA,NA,889017
I025,NA,NA,6/7/19,NA,NA,static,html-button-response,152,NA,6312,3,NA,NA,NA,NA,889843
I025,NA,NA,6/7/19,NA,NA,static,audio-keyboard-response,153,sound/2star.wav,6312,NA,2,219,NA,NA,891346
I025,NA,NA,6/7/19,NA,NA,static,html-button-response,154,NA,6312,0,NA,NA,NA,NA,892079
I025,NA,NA,6/7/19,NA,NA,static,audio-keyboard-response,155,sound/6star.wav,6312,NA,6,225,NA,NA,893584
I025,NA,NA,6/7/19,NA,NA,static,html-button-response,156,NA,6312,1,NA,NA,NA,NA,896380
I025,NA,NA,6/7/19,NA,NA,static,audio-keyboard-response,157,sound/3star.wav,6312,NA,3,228,NA,NA,897891
I025,NA,NA,6/7/19,NA,NA,static,html-button-response,158,NA,6312,2,NA,NA,NA,NA,898878
I025,NA,NA,6/7/19,NA,NA,static,audio-keyboard-response,159,sound/1star.wav,6312,NA,1,229,NA,NA,900383
I025,NA,NA,6/7/19,NA,NA,static,html-button-response,160,NA,6312,3,NA,NA,NA,NA,902221
I025,NA,NA,6/7/19,NA,NA,static,audio-keyboard-response,161,sound/2star.wav,6312,NA,2,231,NA,NA,903729
I025,NA,NA,6/7/19,NA,NA,static,html-button-response,162,NA,6312,0,NA,NA,NA,NA,905086
I025,NA,NA,6/7/19,NA,NA,static,audio-keyboard-response,163,sound/6star.wav,6312,NA,6,237,NA,NA,906592
I025,NA,NA,6/7/19,NA,NA,static,html-button-response,164,NA,6312,2,NA,NA,NA,NA,908885
I025,NA,NA,6/7/19,NA,NA,static,audio-keyboard-response,165,sound/1star.wav,6312,NA,1,238,NA,NA,910389
I025,NA,NA,6/7/19,NA,NA,static,audio-button-response,166,sound/celebration.wav,6312,0,NA,NA,NA,NA,920506
I025,NA,NA,6/7/19,NA,NA,static,html-button-response,167,"Which, if any, of these monsters ever gave you <b>1 star</b>?</p>",6312,2,NA,NA,correct,NA,926062
I025,NA,NA,6/7/19,NA,NA,static,html-button-response,168,"Which, if any, of these monsters ever gave you <b>2 stars</b>?</p>",6312,3,NA,NA,correct,NA,931310
I025,NA,NA,6/7/19,NA,NA,static,html-button-response,169,"Which, if any, of these monsters ever gave you <b>3 stars</b>?</p>",6312,1,NA,NA,correct,NA,935597
I025,NA,NA,6/7/19,NA,NA,static,audio-keyboard-response,129,sound/1star.wav,6312,NA,1,184,NA,NA,860937
I025,NA,NA,6/7/19,NA,NA,static,html-button-response,130,NA,6312,3,NA,NA,NA,NA,861772
I025,NA,NA,6/7/19,NA,NA,static,audio-keyboard-response,131,sound/2star.wav,6312,NA,2,186,NA,NA,863276
I025,NA,NA,6/7/19,NA,NA,static,html-button-response,132,NA,6312,3,NA,NA,NA,NA,864301
I025,NA,NA,6/7/19,NA,NA,static,audio-keyboard-response,133,sound/2star.wav,6312,NA,2,188,NA,NA,865806
I025,NA,NA,6/7/19,NA,NA,static,html-button-response,134,NA,6312,2,NA,NA,NA,NA,866666
I025,NA,NA,6/7/19,NA,NA,static,audio-keyboard-response,135,sound/1star.wav,6312,NA,1,189,NA,NA,868169
I025,NA,NA,6/7/19,NA,NA,static,html-button-response,136,NA,6312,0,NA,NA,NA,NA,869187
I025,NA,NA,6/7/19,NA,NA,static,html-button-response,98,NA,6312,0,NA,NA,NA,NA,814271
I025,NA,NA,6/7/19,NA,NA,static,audio-keyboard-response,99,sound/6star.wav,6312,NA,6,141,NA,NA,815776
I025,NA,NA,6/7/19,NA,NA,static,audio-keyboard-response,139,sound/3star.wav,6312,NA,3,198,NA,NA,873960
I025,NA,NA,6/7/19,NA,NA,static,html-button-response,140,NA,6312,2,NA,NA,NA,NA,875718
I025,NA,NA,6/7/19,NA,NA,static,audio-keyboard-response,141,sound/1star.wav,6312,NA,1,199,NA,NA,877223
I025,NA,NA,6/7/19,NA,NA,static,html-button-response,142,NA,6312,3,NA,NA,NA,NA,878239
I025,NA,NA,6/7/19,NA,NA,static,audio-keyboard-response,143,sound/2star.wav,6312,NA,2,201,NA,NA,879746
I025,NA,NA,6/7/19,NA,NA,static,html-button-response,144,NA,6312,0,NA,NA,NA,NA,880647
I025,NA,NA,6/7/19,NA,NA,static,audio-keyboard-response,145,sound/6star.wav,6312,NA,6,207,NA,NA,882159
I025,NA,NA,6/7/19,NA,NA,static,html-button-response,146,NA,6312,1,NA,NA,NA,NA,883072
I025,NA,NA,6/7/19,NA,NA,static,html-button-response,124,NA,6312,0,NA,NA,NA,NA,854617
I025,NA,NA,6/7/19,NA,NA,static,audio-keyboard-response,121,sound/1star.wav,6312,NA,1,172,NA,NA,851546
I025,NA,NA,6/7/19,NA,NA,static,html-button-response,122,NA,6312,3,NA,NA,NA,NA,852331
I025,NA,NA,6/7/19,NA,NA,static,audio-keyboard-response,123,sound/2star.wav,6312,NA,2,174,NA,NA,853834
I025,NA,NA,6/7/19,NA,NA,static,html-button-response,128,NA,6312,2,NA,NA,NA,NA,859432
I025,NA,NA,6/7/19,NA,NA,static,audio-keyboard-response,125,sound/6star.wav,6312,NA,6,180,NA,NA,856124
I025,NA,NA,6/7/19,NA,NA,static,html-button-response,126,NA,6312,1,NA,NA,NA,NA,857198
I025,NA,NA,6/7/19,NA,NA,static,audio-keyboard-response,127,sound/3star.wav,6312,NA,3,183,NA,NA,858708
I025,NA,NA,6/7/19,NA,NA,static,audio-keyboard-response,137,sound/6star.wav,6312,NA,6,195,NA,NA,870691
I025,NA,NA,6/7/19,NA,NA,static,html-button-response,138,NA,6312,1,NA,NA,NA,NA,872450
I026,NA,NA,6/7/19,NA,NA,dynamic,audio-keyboard-response,135,sound/3star.wav,1236,NA,3,229,NA,NA,281624
I026,NA,NA,6/7/19,NA,NA,dynamic,html-button-response,146,NA,1236,2,NA,NA,NA,NA,294668
I026,NA,NA,6/7/19,NA,NA,dynamic,audio-keyboard-response,147,sound/3star.wav,1236,NA,3,253,NA,NA,296171
I026,NA,NA,6/7/19,NA,NA,dynamic,html-button-response,144,NA,1236,1,NA,NA,NA,NA,292473
I026,NA,NA,6/7/19,NA,NA,dynamic,audio-keyboard-response,145,sound/2star.wav,1236,NA,2,250,NA,NA,293978
I026,NA,NA,6/7/19,NA,NA,dynamic,audio-keyboard-response,137,sound/2star.wav,1236,NA,2,231,NA,NA,283963
I026,NA,NA,6/7/19,NA,NA,dynamic,html-button-response,138,NA,1236,2,NA,NA,NA,NA,284981
I026,NA,NA,6/7/19,NA,NA,dynamic,html-button-response,148,NA,1236,0,NA,NA,NA,NA,297007
I026,NA,NA,6/7/19,NA,NA,dynamic,html-button-response,136,NA,1236,1,NA,NA,NA,NA,282458
I026,NA,NA,6/7/19,NA,NA,dynamic,audio-keyboard-response,141,sound/6star.wav,1236,NA,6,240,NA,NA,288975
I026,NA,NA,6/7/19,NA,NA,dynamic,html-button-response,142,NA,1236,0,NA,NA,NA,NA,289820
I026,NA,NA,6/7/19,NA,NA,dynamic,audio-keyboard-response,143,sound/8star.wav,1236,NA,8,248,NA,NA,291325
I026,NA,NA,6/7/19,NA,NA,dynamic,audio-keyboard-response,119,sound/8star.wav,1236,NA,8,196,NA,NA,262270
I026,NA,NA,6/7/19,NA,NA,dynamic,html-button-response,120,NA,1236,1,NA,NA,NA,NA,263227
I026,NA,NA,6/7/19,NA,NA,dynamic,audio-keyboard-response,121,sound/2star.wav,1236,NA,2,198,NA,NA,264732
I026,NA,NA,6/7/19,NA,NA,dynamic,audio-keyboard-response,123,sound/3star.wav,1236,NA,3,201,NA,NA,266988
I026,NA,NA,6/7/19,NA,NA,dynamic,html-button-response,124,NA,1236,3,NA,NA,NA,NA,267901
I026,NA,NA,6/7/19,NA,NA,dynamic,audio-keyboard-response,125,sound/6star.wav,1236,NA,6,207,NA,NA,269405
I026,NA,NA,6/7/19,NA,NA,dynamic,html-button-response,126,NA,1236,1,NA,NA,NA,NA,270304
I026,NA,NA,6/7/19,NA,NA,dynamic,audio-keyboard-response,127,sound/2star.wav,1236,NA,2,209,NA,NA,271808
I026,NA,NA,6/7/19,NA,NA,dynamic,audio-keyboard-response,139,sound/3star.wav,1236,NA,3,234,NA,NA,286484
I026,NA,NA,6/7/19,NA,NA,dynamic,html-button-response,140,NA,1236,3,NA,NA,NA,NA,287469
I026,NA,NA,6/7/19,NA,NA,dynamic,html-button-response,6,NA,1236,0,NA,NA,NA,NA,118914
I026,NA,NA,6/7/19,NA,NA,dynamic,html-button-response,128,NA,1236,2,NA,NA,NA,NA,272518
I026,NA,NA,6/7/19,NA,NA,dynamic,audio-keyboard-response,129,sound/3star.wav,1236,NA,3,212,NA,NA,274024
I026,NA,NA,6/7/19,NA,NA,dynamic,html-button-response,130,NA,1236,0,NA,NA,NA,NA,274733
I026,NA,NA,6/7/19,NA,NA,dynamic,audio-keyboard-response,131,sound/8star.wav,1236,NA,8,220,NA,NA,276237
I026,NA,NA,6/7/19,NA,NA,dynamic,html-button-response,132,NA,1236,3,NA,NA,NA,NA,277655
I026,NA,NA,6/7/19,NA,NA,dynamic,audio-keyboard-response,133,sound/6star.wav,1236,NA,6,226,NA,NA,279159
I026,NA,NA,6/7/19,NA,NA,dynamic,html-button-response,134,NA,1236,2,NA,NA,NA,NA,280118
I026,NA,NA,6/7/19,NA,NA,dynamic,html-button-response,54,NA,1236,3,NA,NA,NA,NA,180289
I026,NA,NA,6/7/19,NA,NA,dynamic,audio-keyboard-response,55,sound/6star.wav,1236,NA,6,71,NA,NA,181794
I026,NA,NA,6/7/19,NA,NA,dynamic,html-button-response,56,NA,1236,1,NA,NA,NA,NA,182778
I026,NA,NA,6/7/19,NA,NA,dynamic,audio-keyboard-response,57,sound/2star.wav,1236,NA,2,73,NA,NA,184283
I026,NA,NA,6/7/19,NA,NA,dynamic,html-button-response,58,NA,1236,2,NA,NA,NA,NA,185131
I026,NA,NA,6/7/19,NA,NA,dynamic,audio-keyboard-response,59,sound/3star.wav,1236,NA,3,76,NA,NA,186637
I026,NA,NA,6/7/19,NA,NA,dynamic,html-button-response,60,NA,1236,0,NA,NA,NA,NA,187397
I026,NA,NA,6/7/19,NA,NA,dynamic,audio-keyboard-response,61,sound/1star.wav,1236,NA,1,77,NA,NA,188902
I026,NA,NA,6/7/19,NA,NA,dynamic,html-button-response,62,NA,1236,3,NA,NA,NA,NA,189634
I026,NA,NA,6/7/19,NA,NA,dynamic,audio-keyboard-response,63,sound/6star.wav,1236,NA,6,83,NA,NA,191138
I026,NA,NA,6/7/19,NA,NA,dynamic,html-button-response,64,NA,1236,1,NA,NA,NA,NA,192593
I026,NA,NA,6/7/19,NA,NA,dynamic,audio-keyboard-response,65,sound/2star.wav,1236,NA,2,85,NA,NA,194100
I026,NA,NA,6/7/19,NA,NA,dynamic,html-button-response,66,NA,1236,2,NA,NA,NA,NA,194868
I026,NA,NA,6/7/19,NA,NA,dynamic,audio-keyboard-response,67,sound/3star.wav,1236,NA,3,88,NA,NA,196376
I026,NA,NA,6/7/19,NA,NA,dynamic,audio-keyboard-response,149,sound/8star.wav,1236,NA,8,261,NA,NA,298512
I026,NA,NA,6/7/19,NA,NA,dynamic,html-button-response,150,NA,1236,3,NA,NA,NA,NA,299683
I026,NA,NA,6/7/19,NA,NA,dynamic,audio-keyboard-response,151,sound/6star.wav,1236,NA,6,267,NA,NA,301187
I026,NA,NA,6/7/19,NA,NA,dynamic,html-button-response,152,NA,1236,1,NA,NA,NA,NA,302246
I026,NA,NA,6/7/19,NA,NA,dynamic,audio-keyboard-response,153,sound/2star.wav,1236,NA,2,269,NA,NA,303751
I026,NA,NA,6/7/19,NA,NA,dynamic,html-button-response,154,NA,1236,2,NA,NA,NA,NA,304489
I026,NA,NA,6/7/19,NA,NA,dynamic,audio-keyboard-response,155,sound/3star.wav,1236,NA,3,272,NA,NA,306004
I026,NA,NA,6/7/19,NA,NA,dynamic,html-button-response,156,NA,1236,0,NA,NA,NA,NA,306877
I026,NA,NA,6/7/19,NA,NA,dynamic,audio-keyboard-response,157,sound/8star.wav,1236,NA,8,280,NA,NA,308388
I026,NA,NA,6/7/19,NA,NA,dynamic,html-button-response,158,NA,1236,1,NA,NA,NA,NA,315338
I026,NA,NA,6/7/19,NA,NA,dynamic,audio-keyboard-response,159,sound/2star.wav,1236,NA,2,282,NA,NA,316844
I026,NA,NA,6/7/19,NA,NA,dynamic,html-button-response,122,NA,1236,2,NA,NA,NA,NA,265482
I026,NA,NA,6/7/19,NA,NA,dynamic,html-button-response,0,NA,1236,0,NA,NA,NA,NA,70022
I026,NA,NA,6/7/19,NA,NA,dynamic,animation,1,NA,1236,NA,NA,NA,NA,[],82032
I026,NA,NA,6/7/19,NA,NA,dynamic,html-button-response,2,<img src='img/screen1d.png'></img>,1236,0,NA,NA,NA,NA,84216
I026,NA,NA,6/7/19,NA,NA,dynamic,animation,3,NA,1236,NA,NA,NA,NA,[],105025
I026,NA,NA,6/7/19,NA,NA,dynamic,html-button-response,4,<img src='img/screen5e.jpg'></img>,1236,0,NA,NA,NA,NA,114135
I026,NA,NA,6/7/19,NA,NA,dynamic,html-button-response,5,<p align='center'></p>,1236,0,NA,NA,NA,NA,116042
I026,NA,NA,6/7/19,NA,NA,dynamic,html-button-response,168,"Which, if any, of these monsters ever gave you <b>2 stars</b>?</p>",1236,1,NA,NA,correct,NA,349615
I026,NA,NA,6/7/19,NA,NA,dynamic,html-button-response,169,"Which, if any, of these monsters ever gave you <b>3 stars</b>?</p>",1236,2,NA,NA,correct,NA,356747
I026,NA,NA,6/7/19,NA,NA,dynamic,html-button-response,170,"Which, if any, of these monsters ever gave you <b>6 stars</b>?</p>",1236,3,NA,NA,correct,NA,361771
I026,NA,NA,6/7/19,NA,NA,dynamic,html-button-response,171,"Which, if any, of these monsters ever gave you <b>8 stars</b>?</p>",1236,0,NA,NA,correct,NA,366026
I026,NA,NA,6/7/19,NA,NA,dynamic,html-button-response,172,Which monster did you like the most?</p>,1236,0,NA,NA,NA,NA,371390
I026,NA,NA,6/7/19,NA,NA,dynamic,survey-text,173,NA,1236,NA,NA,NA,NA,"{""Q0"":""Like the color""}",378719
I026,NA,NA,6/7/19,NA,NA,dynamic,html-button-response,52,NA,1236,0,NA,NA,NA,NA,177805
I026,NA,NA,6/7/19,NA,NA,dynamic,audio-keyboard-response,53,sound/1star.wav,1236,NA,1,65,NA,NA,179311
I026,NA,NA,6/7/19,NA,NA,dynamic,audio-keyboard-response,95,sound/6star.wav,1236,NA,6,137,NA,NA,232644
I026,NA,NA,6/7/19,NA,NA,dynamic,html-button-response,96,NA,1236,0,NA,NA,NA,NA,233619
I026,NA,NA,6/7/19,NA,NA,dynamic,audio-keyboard-response,97,sound/8star.wav,1236,NA,8,145,NA,NA,235124
I026,NA,NA,6/7/19,NA,NA,dynamic,html-button-response,98,NA,1236,1,NA,NA,NA,NA,236223
I026,NA,NA,6/7/19,NA,NA,dynamic,audio-keyboard-response,99,sound/2star.wav,1236,NA,2,147,NA,NA,237730
I026,NA,NA,6/7/19,NA,NA,dynamic,html-button-response,100,NA,1236,2,NA,NA,NA,NA,238488
I026,NA,NA,6/7/19,NA,NA,dynamic,audio-keyboard-response,101,sound/3star.wav,1236,NA,3,150,NA,NA,239993
I026,NA,NA,6/7/19,NA,NA,dynamic,html-button-response,102,NA,1236,3,NA,NA,NA,NA,240911
I026,NA,NA,6/7/19,NA,NA,dynamic,audio-keyboard-response,103,sound/6star.wav,1236,NA,6,156,NA,NA,242413
I026,NA,NA,6/7/19,NA,NA,dynamic,html-button-response,104,NA,1236,0,NA,NA,NA,NA,243319
I026,NA,NA,6/7/19,NA,NA,dynamic,audio-keyboard-response,105,sound/8star.wav,1236,NA,8,164,NA,NA,244824
I026,NA,NA,6/7/19,NA,NA,dynamic,html-button-response,106,NA,1236,1,NA,NA,NA,NA,245862
I026,NA,NA,6/7/19,NA,NA,dynamic,audio-keyboard-response,107,sound/2star.wav,1236,NA,2,166,NA,NA,247366
I026,NA,NA,6/7/19,NA,NA,dynamic,html-button-response,108,NA,1236,2,NA,NA,NA,NA,248239
I026,NA,NA,6/7/19,NA,NA,dynamic,audio-keyboard-response,109,sound/3star.wav,1236,NA,3,169,NA,NA,249742
I026,NA,NA,6/7/19,NA,NA,dynamic,html-button-response,110,NA,1236,0,NA,NA,NA,NA,251108
I026,NA,NA,6/7/19,NA,NA,dynamic,audio-keyboard-response,111,sound/8star.wav,1236,NA,8,177,NA,NA,252612
I026,NA,NA,6/7/19,NA,NA,dynamic,html-button-response,112,NA,1236,3,NA,NA,NA,NA,253757
I026,NA,NA,6/7/19,NA,NA,dynamic,audio-keyboard-response,113,sound/6star.wav,1236,NA,6,183,NA,NA,255261
I026,NA,NA,6/7/19,NA,NA,dynamic,html-button-response,114,NA,1236,1,NA,NA,NA,NA,256240
I026,NA,NA,6/7/19,NA,NA,dynamic,audio-keyboard-response,115,sound/2star.wav,1236,NA,2,185,NA,NA,257745
I026,NA,NA,6/7/19,NA,NA,dynamic,html-button-response,116,NA,1236,2,NA,NA,NA,NA,258471
I026,NA,NA,6/7/19,NA,NA,dynamic,audio-keyboard-response,117,sound/3star.wav,1236,NA,3,188,NA,NA,259977
I026,NA,NA,6/7/19,NA,NA,dynamic,html-button-response,118,NA,1236,0,NA,NA,NA,NA,260767
I026,NA,NA,6/7/19,NA,NA,dynamic,audio-keyboard-response,37,sound/2star.wav,1236,NA,2,46,NA,NA,160200
I026,NA,NA,6/7/19,NA,NA,dynamic,html-button-response,38,NA,1236,0,NA,NA,NA,NA,160735
I026,NA,NA,6/7/19,NA,NA,dynamic,html-button-response,160,NA,1236,3,NA,NA,NA,NA,317610
I026,NA,NA,6/7/19,NA,NA,dynamic,audio-keyboard-response,161,sound/6star.wav,1236,NA,6,288,NA,NA,319115
I026,NA,NA,6/7/19,NA,NA,dynamic,html-button-response,162,NA,1236,2,NA,NA,NA,NA,319887
I026,NA,NA,6/7/19,NA,NA,dynamic,audio-keyboard-response,163,sound/3star.wav,1236,NA,3,291,NA,NA,321391
I026,NA,NA,6/7/19,NA,NA,dynamic,html-button-response,164,NA,1236,1,NA,NA,NA,NA,322108
I026,NA,NA,6/7/19,NA,NA,dynamic,audio-keyboard-response,165,sound/2star.wav,1236,NA,2,293,NA,NA,323610
I026,NA,NA,6/7/19,NA,NA,dynamic,audio-button-response,166,sound/celebration.wav,1236,0,NA,NA,NA,NA,334311
I026,NA,NA,6/7/19,NA,NA,dynamic,html-button-response,167,"Which, if any, of these monsters ever gave you <b>1 star</b>?</p>",1236,4,NA,NA,incorrect,NA,340795
I026,NA,NA,6/7/19,NA,NA,dynamic,audio-keyboard-response,7,sound/1star.wav,1236,NA,1,1,NA,NA,120423
I026,NA,NA,6/7/19,NA,NA,dynamic,html-button-response,8,NA,1236,3,NA,NA,NA,NA,122614
I026,NA,NA,6/7/19,NA,NA,dynamic,audio-keyboard-response,9,sound/6star.wav,1236,NA,6,7,NA,NA,124123
I026,NA,NA,6/7/19,NA,NA,dynamic,html-button-response,10,NA,1236,1,NA,NA,NA,NA,125769
I026,NA,NA,6/7/19,NA,NA,dynamic,audio-keyboard-response,11,sound/2star.wav,1236,NA,2,9,NA,NA,127273
I026,NA,NA,6/7/19,NA,NA,dynamic,html-button-response,12,NA,1236,2,NA,NA,NA,NA,128120
I026,NA,NA,6/7/19,NA,NA,dynamic,audio-keyboard-response,13,sound/3star.wav,1236,NA,3,12,NA,NA,129627
I026,NA,NA,6/7/19,NA,NA,dynamic,html-button-response,14,NA,1236,0,NA,NA,NA,NA,130642
I026,NA,NA,6/7/19,NA,NA,dynamic,audio-keyboard-response,15,sound/1star.wav,1236,NA,1,13,NA,NA,132146
I026,NA,NA,6/7/19,NA,NA,dynamic,html-button-response,16,NA,1236,3,NA,NA,NA,NA,133100
I026,NA,NA,6/7/19,NA,NA,dynamic,audio-keyboard-response,17,sound/6star.wav,1236,NA,6,19,NA,NA,134606
I026,NA,NA,6/7/19,NA,NA,dynamic,html-button-response,18,NA,1236,0,NA,NA,NA,NA,135897
I026,NA,NA,6/7/19,NA,NA,dynamic,audio-keyboard-response,19,sound/1star.wav,1236,NA,1,20,NA,NA,137402
I026,NA,NA,6/7/19,NA,NA,dynamic,html-button-response,20,NA,1236,1,NA,NA,NA,NA,138172
I026,NA,NA,6/7/19,NA,NA,dynamic,audio-keyboard-response,21,sound/2star.wav,1236,NA,2,22,NA,NA,139680
I026,NA,NA,6/7/19,NA,NA,dynamic,html-button-response,22,NA,1236,2,NA,NA,NA,NA,140695
I026,NA,NA,6/7/19,NA,NA,dynamic,audio-keyboard-response,23,sound/3star.wav,1236,NA,3,25,NA,NA,142204
I026,NA,NA,6/7/19,NA,NA,dynamic,html-button-response,24,NA,1236,3,NA,NA,NA,NA,143774
I026,NA,NA,6/7/19,NA,NA,dynamic,audio-keyboard-response,25,sound/6star.wav,1236,NA,6,31,NA,NA,145279
I026,NA,NA,6/7/19,NA,NA,dynamic,html-button-response,26,NA,1236,0,NA,NA,NA,NA,146640
I026,NA,NA,6/7/19,NA,NA,dynamic,audio-keyboard-response,27,sound/1star.wav,1236,NA,1,32,NA,NA,148143
I026,NA,NA,6/7/19,NA,NA,dynamic,html-button-response,28,NA,1236,1,NA,NA,NA,NA,149044
I026,NA,NA,6/7/19,NA,NA,dynamic,audio-keyboard-response,29,sound/2star.wav,1236,NA,2,34,NA,NA,150550
I026,NA,NA,6/7/19,NA,NA,dynamic,html-button-response,30,NA,1236,2,NA,NA,NA,NA,151427
I026,NA,NA,6/7/19,NA,NA,dynamic,audio-keyboard-response,31,sound/3star.wav,1236,NA,3,37,NA,NA,152933
I026,NA,NA,6/7/19,NA,NA,dynamic,html-button-response,32,NA,1236,0,NA,NA,NA,NA,153890
I026,NA,NA,6/7/19,NA,NA,dynamic,audio-keyboard-response,33,sound/1star.wav,1236,NA,1,38,NA,NA,155398
I026,NA,NA,6/7/19,NA,NA,dynamic,html-button-response,34,NA,1236,3,NA,NA,NA,NA,156199
I026,NA,NA,6/7/19,NA,NA,dynamic,audio-keyboard-response,35,sound/6star.wav,1236,NA,6,44,NA,NA,157710
I026,NA,NA,6/7/19,NA,NA,dynamic,html-button-response,36,NA,1236,1,NA,NA,NA,NA,158694
I026,NA,NA,6/7/19,NA,NA,dynamic,audio-keyboard-response,77,sound/2star.wav,1236,NA,2,100,NA,NA,210517
I026,NA,NA,6/7/19,NA,NA,dynamic,html-button-response,78,NA,1236,2,NA,NA,NA,NA,211308
I026,NA,NA,6/7/19,NA,NA,dynamic,audio-keyboard-response,79,sound/3star.wav,1236,NA,3,103,NA,NA,212814
I026,NA,NA,6/7/19,NA,NA,dynamic,html-button-response,80,NA,1236,3,NA,NA,NA,NA,213609
I026,NA,NA,6/7/19,NA,NA,dynamic,audio-keyboard-response,81,sound/6star.wav,1236,NA,6,109,NA,NA,215113
I026,NA,NA,6/7/19,NA,NA,dynamic,html-button-response,82,NA,1236,0,NA,NA,NA,NA,216064
I026,NA,NA,6/7/19,NA,NA,dynamic,audio-keyboard-response,83,sound/1star.wav,1236,NA,1,110,NA,NA,217568
I026,NA,NA,6/7/19,NA,NA,dynamic,html-button-response,84,NA,1236,1,NA,NA,NA,NA,218555
I026,NA,NA,6/7/19,NA,NA,dynamic,audio-keyboard-response,85,sound/2star.wav,1236,NA,2,112,NA,NA,220061
I026,NA,NA,6/7/19,NA,NA,dynamic,html-button-response,86,NA,1236,3,NA,NA,NA,NA,221132
I026,NA,NA,6/7/19,NA,NA,dynamic,audio-keyboard-response,47,sound/6star.wav,1236,NA,6,59,NA,NA,171899
I026,NA,NA,6/7/19,NA,NA,dynamic,html-button-response,48,NA,1236,2,NA,NA,NA,NA,172954
I026,NA,NA,6/7/19,NA,NA,dynamic,audio-keyboard-response,49,sound/3star.wav,1236,NA,3,62,NA,NA,174458
I026,NA,NA,6/7/19,NA,NA,dynamic,html-button-response,50,NA,1236,1,NA,NA,NA,NA,175461
I026,NA,NA,6/7/19,NA,NA,dynamic,audio-keyboard-response,51,sound/2star.wav,1236,NA,2,64,NA,NA,176966
I026,NA,NA,6/7/19,NA,NA,dynamic,html-button-response,92,NA,1236,2,NA,NA,NA,NA,228513
I026,NA,NA,6/7/19,NA,NA,dynamic,audio-keyboard-response,93,sound/3star.wav,1236,NA,3,131,NA,NA,230017
I026,NA,NA,6/7/19,NA,NA,dynamic,html-button-response,94,NA,1236,3,NA,NA,NA,NA,231140
I026,NA,NA,6/7/19,NA,NA,dynamic,html-button-response,68,NA,1236,0,NA,NA,NA,NA,197355
I026,NA,NA,6/7/19,NA,NA,dynamic,audio-keyboard-response,69,sound/1star.wav,1236,NA,1,89,NA,NA,198860
I026,NA,NA,6/7/19,NA,NA,dynamic,html-button-response,70,NA,1236,3,NA,NA,NA,NA,199859
I026,NA,NA,6/7/19,NA,NA,dynamic,audio-keyboard-response,71,sound/6star.wav,1236,NA,6,95,NA,NA,201367
I026,NA,NA,6/7/19,NA,NA,dynamic,html-button-response,72,NA,1236,1,NA,NA,NA,NA,202333
I026,NA,NA,6/7/19,NA,NA,dynamic,audio-keyboard-response,73,sound/2star.wav,1236,NA,2,97,NA,NA,203836
I026,NA,NA,6/7/19,NA,NA,dynamic,html-button-response,74,NA,1236,0,NA,NA,NA,NA,206711
I026,NA,NA,6/7/19,NA,NA,dynamic,audio-keyboard-response,75,sound/1star.wav,1236,NA,1,98,NA,NA,208218
I026,NA,NA,6/7/19,NA,NA,dynamic,html-button-response,76,NA,1236,1,NA,NA,NA,NA,209010
I026,NA,NA,6/7/19,NA,NA,dynamic,html-button-response,90,NA,1236,1,NA,NA,NA,NA,226335
I026,NA,NA,6/7/19,NA,NA,dynamic,audio-keyboard-response,91,sound/2star.wav,1236,NA,2,128,NA,NA,227844
I026,NA,NA,6/7/19,NA,NA,dynamic,html-button-response,42,NA,1236,1,NA,NA,NA,NA,165381
I026,NA,NA,6/7/19,NA,NA,dynamic,audio-keyboard-response,39,sound/1star.wav,1236,NA,1,47,NA,NA,162244
I026,NA,NA,6/7/19,NA,NA,dynamic,html-button-response,40,NA,1236,2,NA,NA,NA,NA,163061
I026,NA,NA,6/7/19,NA,NA,dynamic,audio-keyboard-response,41,sound/3star.wav,1236,NA,3,50,NA,NA,164566
I026,NA,NA,6/7/19,NA,NA,dynamic,audio-keyboard-response,87,sound/6star.wav,1236,NA,6,118,NA,NA,222638
I026,NA,NA,6/7/19,NA,NA,dynamic,audio-keyboard-response,43,sound/2star.wav,1236,NA,2,52,NA,NA,166887
I026,NA,NA,6/7/19,NA,NA,dynamic,html-button-response,44,NA,1236,0,NA,NA,NA,NA,167839
I026,NA,NA,6/7/19,NA,NA,dynamic,audio-keyboard-response,45,sound/1star.wav,1236,NA,1,53,NA,NA,169344
I026,NA,NA,6/7/19,NA,NA,dynamic,html-button-response,88,NA,1236,0,NA,NA,NA,NA,223652
I026,NA,NA,6/7/19,NA,NA,dynamic,audio-keyboard-response,89,sound/8star.wav,1236,NA,8,126,NA,NA,225158
I026,NA,NA,6/7/19,NA,NA,dynamic,html-button-response,46,NA,1236,3,NA,NA,NA,NA,170397
I027,NA,NA,6/7/19,NA,NA,dynamic,html-button-response,14,NA,3126,3,NA,NA,NA,NA,1257220
I027,NA,NA,6/7/19,NA,NA,dynamic,html-button-response,12,NA,3126,3,NA,NA,NA,NA,1252327
I027,NA,NA,6/7/19,NA,NA,dynamic,audio-keyboard-response,13,sound/6star.wav,3126,NA,6,12,NA,NA,1253834
I027,NA,NA,6/7/19,NA,NA,dynamic,html-button-response,68,NA,3126,1,NA,NA,NA,NA,1342528
I027,NA,NA,6/7/19,NA,NA,dynamic,animation,3,NA,3126,NA,NA,NA,NA,[],1224575
I027,NA,NA,6/7/19,NA,NA,dynamic,html-button-response,4,<img src='img/screen5e.jpg'></img>,3126,0,NA,NA,NA,NA,1236227
I027,NA,NA,6/7/19,NA,NA,dynamic,html-button-response,5,<p align='center'></p>,3126,0,NA,NA,NA,NA,1237930
I027,NA,NA,6/7/19,NA,NA,dynamic,audio-keyboard-response,15,sound/6star.wav,3126,NA,6,18,NA,NA,1258727
I027,NA,NA,6/7/19,NA,NA,dynamic,audio-keyboard-response,7,sound/2star.wav,3126,NA,2,2,NA,NA,1243154
I027,NA,NA,6/7/19,NA,NA,dynamic,html-button-response,8,NA,3126,0,NA,NA,NA,NA,1245963
I027,NA,NA,6/7/19,NA,NA,dynamic,audio-keyboard-response,9,sound/3star.wav,3126,NA,3,5,NA,NA,1247471
I027,NA,NA,6/7/19,NA,NA,dynamic,html-button-response,6,NA,3126,2,NA,NA,NA,NA,1241650
I027,NA,NA,6/7/19,NA,NA,dynamic,audio-keyboard-response,11,sound/1star.wav,3126,NA,1,6,NA,NA,1250939
I027,NA,NA,6/7/19,NA,NA,dynamic,html-button-response,66,NA,3126,3,NA,NA,NA,NA,1335199
I027,NA,NA,6/7/19,NA,NA,dynamic,audio-keyboard-response,67,sound/6star.wav,3126,NA,6,95,NA,NA,1336704
I027,NA,NA,6/7/19,NA,NA,dynamic,html-button-response,0,NA,3126,0,NA,NA,NA,NA,1189525
I027,NA,NA,6/7/19,NA,NA,dynamic,animation,1,NA,3126,NA,NA,NA,NA,[],1201538
I027,NA,NA,6/7/19,NA,NA,dynamic,html-button-response,2,<img src='img/screen1d.png'></img>,3126,0,NA,NA,NA,NA,1203759
I027,NA,NA,6/7/19,NA,NA,dynamic,audio-keyboard-response,43,sound/6star.wav,3126,NA,6,57,NA,NA,1300121
I027,NA,NA,6/7/19,NA,NA,dynamic,html-button-response,44,NA,3126,0,NA,NA,NA,NA,1301645
I027,NA,NA,6/7/19,NA,NA,dynamic,audio-keyboard-response,45,sound/3star.wav,3126,NA,3,60,NA,NA,1303149
I027,NA,NA,6/7/19,NA,NA,dynamic,html-button-response,46,NA,3126,0,NA,NA,NA,NA,1304983
I027,NA,NA,6/7/19,NA,NA,dynamic,audio-keyboard-response,47,sound/3star.wav,3126,NA,3,63,NA,NA,1306489
I027,NA,NA,6/7/19,NA,NA,dynamic,html-button-response,48,NA,3126,2,NA,NA,NA,NA,1307864
I027,NA,NA,6/7/19,NA,NA,dynamic,html-button-response,10,NA,3126,1,NA,NA,NA,NA,1249433
I027,NA,NA,6/7/19,NA,NA,dynamic,html-button-response,50,NA,3126,1,NA,NA,NA,NA,1310566
I027,NA,NA,6/7/19,NA,NA,dynamic,audio-keyboard-response,51,sound/1star.wav,3126,NA,1,66,NA,NA,1312073
I027,NA,NA,6/7/19,NA,NA,dynamic,html-button-response,52,NA,3126,3,NA,NA,NA,NA,1313016
I027,NA,NA,6/7/19,NA,NA,dynamic,audio-keyboard-response,53,sound/6star.wav,3126,NA,6,72,NA,NA,1314521
I027,NA,NA,6/7/19,NA,NA,dynamic,html-button-response,54,NA,3126,2,NA,NA,NA,NA,1316339
I027,NA,NA,6/7/19,NA,NA,dynamic,audio-keyboard-response,55,sound/2star.wav,3126,NA,2,74,NA,NA,1317845
I027,NA,NA,6/7/19,NA,NA,dynamic,html-button-response,56,NA,3126,1,NA,NA,NA,NA,1319915
I027,NA,NA,6/7/19,NA,NA,dynamic,audio-keyboard-response,57,sound/1star.wav,3126,NA,1,75,NA,NA,1321420
I027,NA,NA,6/7/19,NA,NA,dynamic,html-button-response,58,NA,3126,0,NA,NA,NA,NA,1322754
I027,NA,NA,6/7/19,NA,NA,dynamic,audio-keyboard-response,59,sound/3star.wav,3126,NA,3,78,NA,NA,1324259
I027,NA,NA,6/7/19,NA,NA,dynamic,html-button-response,60,NA,3126,3,NA,NA,NA,NA,1325790
I027,NA,NA,6/7/19,NA,NA,dynamic,audio-keyboard-response,61,sound/6star.wav,3126,NA,6,84,NA,NA,1327298
I027,NA,NA,6/7/19,NA,NA,dynamic,audio-keyboard-response,49,sound/2star.wav,3126,NA,2,65,NA,NA,1309368
I027,NA,NA,6/7/19,NA,NA,dynamic,audio-keyboard-response,63,sound/3star.wav,3126,NA,3,87,NA,NA,1331311
I027,NA,NA,6/7/19,NA,NA,dynamic,html-button-response,64,NA,3126,2,NA,NA,NA,NA,1332665
I027,NA,NA,6/7/19,NA,NA,dynamic,audio-keyboard-response,65,sound/2star.wav,3126,NA,2,89,NA,NA,1334194
I027,NA,NA,6/7/19,NA,NA,dynamic,html-button-response,106,NA,3126,3,NA,NA,NA,NA,1398962
I027,NA,NA,6/7/19,NA,NA,dynamic,audio-keyboard-response,107,sound/6star.wav,3126,NA,6,176,NA,NA,1400468
I027,NA,NA,6/7/19,NA,NA,dynamic,audio-keyboard-response,69,sound/1star.wav,3126,NA,1,96,NA,NA,1344031
I027,NA,NA,6/7/19,NA,NA,dynamic,html-button-response,70,NA,3126,2,NA,NA,NA,NA,1345614
I027,NA,NA,6/7/19,NA,NA,dynamic,audio-keyboard-response,71,sound/2star.wav,3126,NA,2,98,NA,NA,1347117
I027,NA,NA,6/7/19,NA,NA,dynamic,html-button-response,72,NA,3126,3,NA,NA,NA,NA,1348063
I027,NA,NA,6/7/19,NA,NA,dynamic,audio-keyboard-response,73,sound/6star.wav,3126,NA,6,104,NA,NA,1349568
I027,NA,NA,6/7/19,NA,NA,dynamic,html-button-response,74,NA,3126,0,NA,NA,NA,NA,1350655
I027,NA,NA,6/7/19,NA,NA,dynamic,audio-keyboard-response,75,sound/3star.wav,3126,NA,3,107,NA,NA,1352177
I027,NA,NA,6/7/19,NA,NA,dynamic,html-button-response,62,NA,3126,0,NA,NA,NA,NA,1329805
I027,NA,NA,6/7/19,NA,NA,dynamic,html-button-response,76,NA,3126,0,NA,NA,NA,NA,1353465
I027,NA,NA,6/7/19,NA,NA,dynamic,audio-keyboard-response,77,sound/3star.wav,3126,NA,3,110,NA,NA,1354975
I027,NA,NA,6/7/19,NA,NA,dynamic,html-button-response,78,NA,3126,1,NA,NA,NA,NA,1356451
I027,NA,NA,6/7/19,NA,NA,dynamic,audio-keyboard-response,79,sound/1star.wav,3126,NA,1,111,NA,NA,1357955
I027,NA,NA,6/7/19,NA,NA,dynamic,html-button-response,80,NA,3126,2,NA,NA,NA,NA,1359231
I027,NA,NA,6/7/19,NA,NA,dynamic,audio-keyboard-response,81,sound/2star.wav,3126,NA,2,113,NA,NA,1360736
I027,NA,NA,6/7/19,NA,NA,dynamic,html-button-response,82,NA,3126,3,NA,NA,NA,NA,1361738
I027,NA,NA,6/7/19,NA,NA,dynamic,audio-keyboard-response,83,sound/6star.wav,3126,NA,6,119,NA,NA,1363244
I027,NA,NA,6/7/19,NA,NA,dynamic,html-button-response,84,NA,3126,3,NA,NA,NA,NA,1365037
I027,NA,NA,6/7/19,NA,NA,dynamic,audio-keyboard-response,85,sound/6star.wav,3126,NA,6,125,NA,NA,1366540
I027,NA,NA,6/7/19,NA,NA,dynamic,html-button-response,86,NA,3126,2,NA,NA,NA,NA,1367988
I027,NA,NA,6/7/19,NA,NA,dynamic,audio-keyboard-response,87,sound/2star.wav,3126,NA,2,127,NA,NA,1369494
I027,NA,NA,6/7/19,NA,NA,dynamic,html-button-response,88,NA,3126,1,NA,NA,NA,NA,1370867
I027,NA,NA,6/7/19,NA,NA,dynamic,audio-keyboard-response,89,sound/8star.wav,3126,NA,8,135,NA,NA,1372372
I027,NA,NA,6/7/19,NA,NA,dynamic,html-button-response,90,NA,3126,0,NA,NA,NA,NA,1374266
I027,NA,NA,6/7/19,NA,NA,dynamic,audio-keyboard-response,91,sound/3star.wav,3126,NA,3,138,NA,NA,1375774
I027,NA,NA,6/7/19,NA,NA,dynamic,html-button-response,92,NA,3126,2,NA,NA,NA,NA,1378110
I027,NA,NA,6/7/19,NA,NA,dynamic,audio-keyboard-response,93,sound/2star.wav,3126,NA,2,140,NA,NA,1379613
I027,NA,NA,6/7/19,NA,NA,dynamic,html-button-response,94,NA,3126,0,NA,NA,NA,NA,1381268
I027,NA,NA,6/7/19,NA,NA,dynamic,audio-keyboard-response,95,sound/3star.wav,3126,NA,3,143,NA,NA,1382774
I027,NA,NA,6/7/19,NA,NA,dynamic,html-button-response,96,NA,3126,3,NA,NA,NA,NA,1384121
I027,NA,NA,6/7/19,NA,NA,dynamic,audio-keyboard-response,97,sound/6star.wav,3126,NA,6,149,NA,NA,1385625
I027,NA,NA,6/7/19,NA,NA,dynamic,html-button-response,98,NA,3126,1,NA,NA,NA,NA,1386965
I027,NA,NA,6/7/19,NA,NA,dynamic,audio-keyboard-response,99,sound/8star.wav,3126,NA,8,157,NA,NA,1388470
I027,NA,NA,6/7/19,NA,NA,dynamic,html-button-response,100,NA,3126,0,NA,NA,NA,NA,1390250
I027,NA,NA,6/7/19,NA,NA,dynamic,audio-keyboard-response,101,sound/3star.wav,3126,NA,3,160,NA,NA,1391760
I027,NA,NA,6/7/19,NA,NA,dynamic,html-button-response,102,NA,3126,2,NA,NA,NA,NA,1392847
I027,NA,NA,6/7/19,NA,NA,dynamic,audio-keyboard-response,103,sound/2star.wav,3126,NA,2,162,NA,NA,1394349
I027,NA,NA,6/7/19,NA,NA,dynamic,html-button-response,104,NA,3126,1,NA,NA,NA,NA,1395731
I027,NA,NA,6/7/19,NA,NA,dynamic,audio-keyboard-response,105,sound/8star.wav,3126,NA,8,170,NA,NA,1397238
I027,NA,NA,6/7/19,NA,NA,dynamic,audio-keyboard-response,25,sound/1star.wav,3126,NA,1,27,NA,NA,1274441
I027,NA,NA,6/7/19,NA,NA,dynamic,html-button-response,26,NA,3126,0,NA,NA,NA,NA,1275731
I027,NA,NA,6/7/19,NA,NA,dynamic,audio-keyboard-response,27,sound/3star.wav,3126,NA,3,30,NA,NA,1277237
I027,NA,NA,6/7/19,NA,NA,dynamic,html-button-response,28,NA,3126,3,NA,NA,NA,NA,1278691
I027,NA,NA,6/7/19,NA,NA,dynamic,audio-keyboard-response,29,sound/6star.wav,3126,NA,6,36,NA,NA,1280194
I027,NA,NA,6/7/19,NA,NA,dynamic,html-button-response,30,NA,3126,0,NA,NA,NA,NA,1282144
I027,NA,NA,6/7/19,NA,NA,dynamic,audio-keyboard-response,31,sound/3star.wav,3126,NA,3,39,NA,NA,1283649
I027,NA,NA,6/7/19,NA,NA,dynamic,html-button-response,32,NA,3126,3,NA,NA,NA,NA,1285001
I027,NA,NA,6/7/19,NA,NA,dynamic,audio-keyboard-response,33,sound/6star.wav,3126,NA,6,45,NA,NA,1286505
I027,NA,NA,6/7/19,NA,NA,dynamic,html-button-response,34,NA,3126,1,NA,NA,NA,NA,1287826
I027,NA,NA,6/7/19,NA,NA,dynamic,audio-keyboard-response,115,sound/3star.wav,3126,NA,3,191,NA,NA,1413258
I027,NA,NA,6/7/19,NA,NA,dynamic,html-button-response,116,NA,3126,3,NA,NA,NA,NA,1414439
I027,NA,NA,6/7/19,NA,NA,dynamic,audio-keyboard-response,117,sound/6star.wav,3126,NA,6,197,NA,NA,1415942
I027,NA,NA,6/7/19,NA,NA,dynamic,html-button-response,118,NA,3126,2,NA,NA,NA,NA,1416982
I027,NA,NA,6/7/19,NA,NA,dynamic,audio-keyboard-response,119,sound/2star.wav,3126,NA,2,199,NA,NA,1418486
I027,NA,NA,6/7/19,NA,NA,dynamic,html-button-response,120,NA,3126,1,NA,NA,NA,NA,1419535
I027,NA,NA,6/7/19,NA,NA,dynamic,audio-keyboard-response,121,sound/8star.wav,3126,NA,8,207,NA,NA,1421040
I027,NA,NA,6/7/19,NA,NA,dynamic,html-button-response,122,NA,3126,2,NA,NA,NA,NA,1422598
I027,NA,NA,6/7/19,NA,NA,dynamic,audio-keyboard-response,123,sound/2star.wav,3126,NA,2,209,NA,NA,1424102
I027,NA,NA,6/7/19,NA,NA,dynamic,html-button-response,124,NA,3126,0,NA,NA,NA,NA,1425101
I027,NA,NA,6/7/19,NA,NA,dynamic,audio-keyboard-response,125,sound/3star.wav,3126,NA,3,212,NA,NA,1426606
I027,NA,NA,6/7/19,NA,NA,dynamic,html-button-response,126,NA,3126,3,NA,NA,NA,NA,1427596
I027,NA,NA,6/7/19,NA,NA,dynamic,audio-keyboard-response,127,sound/6star.wav,3126,NA,6,218,NA,NA,1429115
I027,NA,NA,6/7/19,NA,NA,dynamic,html-button-response,128,NA,3126,1,NA,NA,NA,NA,1431050
I027,NA,NA,6/7/19,NA,NA,dynamic,audio-keyboard-response,129,sound/8star.wav,3126,NA,8,226,NA,NA,1432558
I027,NA,NA,6/7/19,NA,NA,dynamic,html-button-response,130,NA,3126,0,NA,NA,NA,NA,1434475
I027,NA,NA,6/7/19,NA,NA,dynamic,audio-keyboard-response,131,sound/3star.wav,3126,NA,3,229,NA,NA,1435987
I027,NA,NA,6/7/19,NA,NA,dynamic,html-button-response,132,NA,3126,3,NA,NA,NA,NA,1437139
I027,NA,NA,6/7/19,NA,NA,dynamic,audio-keyboard-response,133,sound/6star.wav,3126,NA,6,235,NA,NA,1438642
I027,NA,NA,6/7/19,NA,NA,dynamic,html-button-response,134,NA,3126,1,NA,NA,NA,NA,1440146
I027,NA,NA,6/7/19,NA,NA,dynamic,audio-keyboard-response,135,sound/8star.wav,3126,NA,8,243,NA,NA,1441649
I027,NA,NA,6/7/19,NA,NA,dynamic,html-button-response,16,NA,3126,0,NA,NA,NA,NA,1260095
I027,NA,NA,6/7/19,NA,NA,dynamic,audio-keyboard-response,17,sound/3star.wav,3126,NA,3,21,NA,NA,1261603
I027,NA,NA,6/7/19,NA,NA,dynamic,html-button-response,18,NA,3126,2,NA,NA,NA,NA,1263276
I027,NA,NA,6/7/19,NA,NA,dynamic,audio-keyboard-response,19,sound/2star.wav,3126,NA,2,23,NA,NA,1264780
I027,NA,NA,6/7/19,NA,NA,dynamic,html-button-response,20,NA,3126,1,NA,NA,NA,NA,1266216
I027,NA,NA,6/7/19,NA,NA,dynamic,audio-keyboard-response,21,sound/1star.wav,3126,NA,1,24,NA,NA,1267720
I027,NA,NA,6/7/19,NA,NA,dynamic,html-button-response,22,NA,3126,2,NA,NA,NA,NA,1269645
I027,NA,NA,6/7/19,NA,NA,dynamic,audio-keyboard-response,23,sound/2star.wav,3126,NA,2,26,NA,NA,1271148
I027,NA,NA,6/7/19,NA,NA,dynamic,html-button-response,24,NA,3126,1,NA,NA,NA,NA,1272937
I027,NA,NA,6/7/19,NA,NA,dynamic,audio-keyboard-response,143,sound/2star.wav,3126,NA,2,256,NA,NA,1454018
I027,NA,NA,6/7/19,NA,NA,dynamic,html-button-response,144,NA,3126,1,NA,NA,NA,NA,1455056
I027,NA,NA,6/7/19,NA,NA,dynamic,audio-keyboard-response,145,sound/8star.wav,3126,NA,8,264,NA,NA,1456564
I027,NA,NA,6/7/19,NA,NA,dynamic,html-button-response,146,NA,3126,0,NA,NA,NA,NA,1458175
I027,NA,NA,6/7/19,NA,NA,dynamic,html-button-response,108,NA,3126,2,NA,NA,NA,NA,1402743
I027,NA,NA,6/7/19,NA,NA,dynamic,audio-keyboard-response,109,sound/2star.wav,3126,NA,2,178,NA,NA,1404250
I027,NA,NA,6/7/19,NA,NA,dynamic,html-button-response,110,NA,3126,1,NA,NA,NA,NA,1405379
I027,NA,NA,6/7/19,NA,NA,dynamic,audio-keyboard-response,111,sound/8star.wav,3126,NA,8,186,NA,NA,1406883
I027,NA,NA,6/7/19,NA,NA,dynamic,html-button-response,112,NA,3126,2,NA,NA,NA,NA,1408393
I027,NA,NA,6/7/19,NA,NA,dynamic,audio-keyboard-response,113,sound/2star.wav,3126,NA,2,188,NA,NA,1409898
I027,NA,NA,6/7/19,NA,NA,dynamic,audio-keyboard-response,35,sound/1star.wav,3126,NA,1,46,NA,NA,1289329
I027,NA,NA,6/7/19,NA,NA,dynamic,html-button-response,36,NA,3126,2,NA,NA,NA,NA,1290319
I027,NA,NA,6/7/19,NA,NA,dynamic,audio-keyboard-response,37,sound/2star.wav,3126,NA,2,48,NA,NA,1291826
I027,NA,NA,6/7/19,NA,NA,dynamic,html-button-response,38,NA,3126,2,NA,NA,NA,NA,1293262
I027,NA,NA,6/7/19,NA,NA,dynamic,audio-keyboard-response,39,sound/2star.wav,3126,NA,2,50,NA,NA,1294769
I027,NA,NA,6/7/19,NA,NA,dynamic,html-button-response,40,NA,3126,1,NA,NA,NA,NA,1296099
I027,NA,NA,6/7/19,NA,NA,dynamic,audio-keyboard-response,41,sound/1star.wav,3126,NA,1,51,NA,NA,1297605
I027,NA,NA,6/7/19,NA,NA,dynamic,html-button-response,42,NA,3126,3,NA,NA,NA,NA,1298615
I027,NA,NA,6/7/19,NA,NA,dynamic,html-button-response,162,NA,3126,0,NA,NA,NA,NA,1484574
I027,NA,NA,6/7/19,NA,NA,dynamic,audio-keyboard-response,163,sound/3star.wav,3126,NA,3,299,NA,NA,1486079
I027,NA,NA,6/7/19,NA,NA,dynamic,html-button-response,164,NA,3126,1,NA,NA,NA,NA,1487662
I027,NA,NA,6/7/19,NA,NA,dynamic,audio-keyboard-response,165,sound/8star.wav,3126,NA,8,307,NA,NA,1489168
I027,NA,NA,6/7/19,NA,NA,dynamic,audio-button-response,166,sound/celebration.wav,3126,0,NA,NA,NA,NA,1499704
I027,NA,NA,6/7/19,NA,NA,dynamic,html-button-response,167,"Which, if any, of these monsters ever gave you <b>1 star</b>?</p>",3126,1,NA,NA,correct,NA,1506821
I027,NA,NA,6/7/19,NA,NA,dynamic,html-button-response,168,"Which, if any, of these monsters ever gave you <b>2 stars</b>?</p>",3126,2,NA,NA,correct,NA,1511262
I027,NA,NA,6/7/19,NA,NA,dynamic,html-button-response,169,"Which, if any, of these monsters ever gave you <b>3 stars</b>?</p>",3126,0,NA,NA,correct,NA,1515783
I027,NA,NA,6/7/19,NA,NA,dynamic,html-button-response,170,"Which, if any, of these monsters ever gave you <b>6 stars</b>?</p>",3126,3,NA,NA,correct,NA,1520727
I027,NA,NA,6/7/19,NA,NA,dynamic,html-button-response,171,"Which, if any, of these monsters ever gave you <b>8 stars</b>?</p>",3126,1,NA,NA,correct,NA,1525073
I027,NA,NA,6/7/19,NA,NA,dynamic,html-button-response,172,Which monster did you like the most?</p>,3126,2,NA,NA,NA,NA,1531774
I027,NA,NA,6/7/19,NA,NA,dynamic,survey-text,173,NA,3126,NA,NA,NA,NA,"{""Q0"":""Like the color""}",1543701
I027,NA,NA,6/7/19,NA,NA,dynamic,audio-keyboard-response,159,sound/6star.wav,3126,NA,6,294,NA,NA,1478899
I027,NA,NA,6/7/19,NA,NA,dynamic,audio-keyboard-response,147,sound/3star.wav,3126,NA,3,267,NA,NA,1459679
I027,NA,NA,6/7/19,NA,NA,dynamic,html-button-response,148,NA,3126,2,NA,NA,NA,NA,1461024
I027,NA,NA,6/7/19,NA,NA,dynamic,html-button-response,136,NA,3126,2,NA,NA,NA,NA,1443419
I027,NA,NA,6/7/19,NA,NA,dynamic,audio-keyboard-response,137,sound/2star.wav,3126,NA,2,245,NA,NA,1444922
I027,NA,NA,6/7/19,NA,NA,dynamic,html-button-response,138,NA,3126,0,NA,NA,NA,NA,1446026
I027,NA,NA,6/7/19,NA,NA,dynamic,audio-keyboard-response,139,sound/3star.wav,3126,NA,3,248,NA,NA,1447533
I027,NA,NA,6/7/19,NA,NA,dynamic,html-button-response,140,NA,3126,3,NA,NA,NA,NA,1449685
I027,NA,NA,6/7/19,NA,NA,dynamic,audio-keyboard-response,141,sound/6star.wav,3126,NA,6,254,NA,NA,1451188
I027,NA,NA,6/7/19,NA,NA,dynamic,html-button-response,142,NA,3126,2,NA,NA,NA,NA,1452514
I027,NA,NA,6/7/19,NA,NA,dynamic,html-button-response,156,NA,3126,2,NA,NA,NA,NA,1474568
I027,NA,NA,6/7/19,NA,NA,dynamic,audio-keyboard-response,157,sound/2star.wav,3126,NA,2,288,NA,NA,1476071
I027,NA,NA,6/7/19,NA,NA,dynamic,html-button-response,158,NA,3126,3,NA,NA,NA,NA,1477395
I027,NA,NA,6/7/19,NA,NA,dynamic,html-button-response,150,NA,3126,3,NA,NA,NA,NA,1463673
I027,NA,NA,6/7/19,NA,NA,dynamic,html-button-response,160,NA,3126,2,NA,NA,NA,NA,1481427
I027,NA,NA,6/7/19,NA,NA,dynamic,audio-keyboard-response,161,sound/2star.wav,3126,NA,2,296,NA,NA,1482934
I027,NA,NA,6/7/19,NA,NA,dynamic,audio-keyboard-response,149,sound/2star.wav,3126,NA,2,269,NA,NA,1462530
I027,NA,NA,6/7/19,NA,NA,dynamic,html-button-response,154,NA,3126,0,NA,NA,NA,NA,1471561
I027,NA,NA,6/7/19,NA,NA,dynamic,audio-keyboard-response,151,sound/6star.wav,3126,NA,6,275,NA,NA,1465176
I027,NA,NA,6/7/19,NA,NA,dynamic,html-button-response,152,NA,3126,1,NA,NA,NA,NA,1467246
I027,NA,NA,6/7/19,NA,NA,dynamic,html-button-response,114,NA,3126,0,NA,NA,NA,NA,1411751
I027,NA,NA,6/7/19,NA,NA,dynamic,audio-keyboard-response,155,sound/3star.wav,3126,NA,3,286,NA,NA,1473065
I027,NA,NA,6/7/19,NA,NA,dynamic,audio-keyboard-response,153,sound/8star.wav,3126,NA,8,283,NA,NA,1468753
I028,NA,NA,6/7/19,NA,NA,dynamic,html-button-response,122,NA,1236,3,NA,NA,NA,NA,255441
I028,NA,NA,6/7/19,NA,NA,dynamic,html-button-response,134,NA,1236,3,NA,NA,NA,NA,272038
I028,NA,NA,6/7/19,NA,NA,dynamic,audio-keyboard-response,135,sound/6star.wav,1236,NA,6,364,NA,NA,273542
I028,NA,NA,6/7/19,NA,NA,dynamic,html-button-response,136,NA,1236,0,NA,NA,NA,NA,275220
I028,NA,NA,6/7/19,NA,NA,dynamic,audio-keyboard-response,123,sound/6star.wav,1236,NA,6,329,NA,NA,256945
I028,NA,NA,6/7/19,NA,NA,dynamic,html-button-response,124,NA,1236,0,NA,NA,NA,NA,257904
I028,NA,NA,6/7/19,NA,NA,dynamic,audio-keyboard-response,151,sound/8star.wav,1236,NA,8,415,NA,NA,300597
I028,NA,NA,6/7/19,NA,NA,dynamic,audio-keyboard-response,137,sound/8star.wav,1236,NA,8,372,NA,NA,276730
I028,NA,NA,6/7/19,NA,NA,dynamic,audio-keyboard-response,153,sound/2star.wav,1236,NA,2,417,NA,NA,303953
I028,NA,NA,6/7/19,NA,NA,dynamic,html-button-response,154,NA,1236,0,NA,NA,NA,NA,305146
I028,NA,NA,6/7/19,NA,NA,dynamic,audio-keyboard-response,155,sound/8star.wav,1236,NA,8,425,NA,NA,306653
I028,NA,NA,6/7/19,NA,NA,dynamic,html-button-response,152,NA,1236,1,NA,NA,NA,NA,302449
I028,NA,NA,6/7/19,NA,NA,dynamic,audio-keyboard-response,157,sound/8star.wav,1236,NA,8,433,NA,NA,312111
I028,NA,NA,6/7/19,NA,NA,dynamic,html-button-response,158,NA,1236,0,NA,NA,NA,NA,314525
I028,NA,NA,6/7/19,NA,NA,dynamic,audio-keyboard-response,159,sound/8star.wav,1236,NA,8,441,NA,NA,316034
I028,NA,NA,6/7/19,NA,NA,dynamic,html-button-response,160,NA,1236,0,NA,NA,NA,NA,318312
I028,NA,NA,6/7/19,NA,NA,dynamic,audio-keyboard-response,161,sound/8star.wav,1236,NA,8,449,NA,NA,319819
I028,NA,NA,6/7/19,NA,NA,dynamic,html-button-response,162,NA,1236,0,NA,NA,NA,NA,321773
I028,NA,NA,6/7/19,NA,NA,dynamic,audio-keyboard-response,163,sound/8star.wav,1236,NA,8,457,NA,NA,323276
I028,NA,NA,6/7/19,NA,NA,dynamic,html-button-response,164,NA,1236,0,NA,NA,NA,NA,324089
I028,NA,NA,6/7/19,NA,NA,dynamic,audio-keyboard-response,125,sound/8star.wav,1236,NA,8,337,NA,NA,259408
I028,NA,NA,6/7/19,NA,NA,dynamic,html-button-response,126,NA,1236,1,NA,NA,NA,NA,260726
I028,NA,NA,6/7/19,NA,NA,dynamic,audio-keyboard-response,127,sound/2star.wav,1236,NA,2,339,NA,NA,262231
I028,NA,NA,6/7/19,NA,NA,dynamic,html-button-response,128,NA,1236,2,NA,NA,NA,NA,263360
I028,NA,NA,6/7/19,NA,NA,dynamic,html-button-response,156,NA,1236,0,NA,NA,NA,NA,310598
I028,NA,NA,6/7/19,NA,NA,dynamic,html-button-response,130,NA,1236,0,NA,NA,NA,NA,265816
I028,NA,NA,6/7/19,NA,NA,dynamic,audio-keyboard-response,131,sound/8star.wav,1236,NA,8,350,NA,NA,267320
I028,NA,NA,6/7/19,NA,NA,dynamic,html-button-response,132,NA,1236,0,NA,NA,NA,NA,268682
I028,NA,NA,6/7/19,NA,NA,dynamic,audio-keyboard-response,133,sound/8star.wav,1236,NA,8,358,NA,NA,270185
I028,NA,NA,6/7/19,NA,NA,dynamic,html-button-response,12,NA,1236,2,NA,NA,NA,NA,89338
I028,NA,NA,6/7/19,NA,NA,dynamic,audio-keyboard-response,13,sound/3star.wav,1236,NA,3,12,NA,NA,90842
I028,NA,NA,6/7/19,NA,NA,dynamic,html-button-response,138,NA,1236,0,NA,NA,NA,NA,278361
I028,NA,NA,6/7/19,NA,NA,dynamic,audio-keyboard-response,139,sound/8star.wav,1236,NA,8,380,NA,NA,279864
I028,NA,NA,6/7/19,NA,NA,dynamic,html-button-response,140,NA,1236,1,NA,NA,NA,NA,285744
I028,NA,NA,6/7/19,NA,NA,dynamic,audio-keyboard-response,141,sound/2star.wav,1236,NA,2,382,NA,NA,287247
I028,NA,NA,6/7/19,NA,NA,dynamic,html-button-response,142,NA,1236,2,NA,NA,NA,NA,287845
I028,NA,NA,6/7/19,NA,NA,dynamic,audio-keyboard-response,143,sound/3star.wav,1236,NA,3,385,NA,NA,289352
I028,NA,NA,6/7/19,NA,NA,dynamic,audio-keyboard-response,129,sound/3star.wav,1236,NA,3,342,NA,NA,264864
I028,NA,NA,6/7/19,NA,NA,dynamic,audio-keyboard-response,21,sound/2star.wav,1236,NA,2,32,NA,NA,103435
I028,NA,NA,6/7/19,NA,NA,dynamic,html-button-response,144,NA,1236,3,NA,NA,NA,NA,289982
I028,NA,NA,6/7/19,NA,NA,dynamic,audio-keyboard-response,145,sound/6star.wav,1236,NA,6,391,NA,NA,291485
I028,NA,NA,6/7/19,NA,NA,dynamic,html-button-response,146,NA,1236,0,NA,NA,NA,NA,292405
I028,NA,NA,6/7/19,NA,NA,dynamic,audio-keyboard-response,147,sound/8star.wav,1236,NA,8,399,NA,NA,293907
I028,NA,NA,6/7/19,NA,NA,dynamic,html-button-response,148,NA,1236,0,NA,NA,NA,NA,295741
I028,NA,NA,6/7/19,NA,NA,dynamic,audio-keyboard-response,149,sound/8star.wav,1236,NA,8,407,NA,NA,297245
I028,NA,NA,6/7/19,NA,NA,dynamic,html-button-response,150,NA,1236,0,NA,NA,NA,NA,299093
I028,NA,NA,6/7/19,NA,NA,dynamic,audio-keyboard-response,69,sound/6star.wav,1236,NA,6,153,NA,NA,172266
I028,NA,NA,6/7/19,NA,NA,dynamic,html-button-response,70,NA,1236,3,NA,NA,NA,NA,173207
I028,NA,NA,6/7/19,NA,NA,dynamic,audio-keyboard-response,71,sound/6star.wav,1236,NA,6,159,NA,NA,174714
I028,NA,NA,6/7/19,NA,NA,dynamic,html-button-response,72,NA,1236,3,NA,NA,NA,NA,175815
I028,NA,NA,6/7/19,NA,NA,dynamic,audio-keyboard-response,73,sound/6star.wav,1236,NA,6,165,NA,NA,177319
I028,NA,NA,6/7/19,NA,NA,dynamic,html-button-response,74,NA,1236,3,NA,NA,NA,NA,178320
I028,NA,NA,6/7/19,NA,NA,dynamic,audio-keyboard-response,75,sound/6star.wav,1236,NA,6,171,NA,NA,179825
I028,NA,NA,6/7/19,NA,NA,dynamic,html-button-response,76,NA,1236,1,NA,NA,NA,NA,181211
I028,NA,NA,6/7/19,NA,NA,dynamic,audio-keyboard-response,77,sound/2star.wav,1236,NA,2,173,NA,NA,182715
I028,NA,NA,6/7/19,NA,NA,dynamic,html-button-response,78,NA,1236,3,NA,NA,NA,NA,183868
I028,NA,NA,6/7/19,NA,NA,dynamic,audio-keyboard-response,79,sound/6star.wav,1236,NA,6,179,NA,NA,185372
I028,NA,NA,6/7/19,NA,NA,dynamic,html-button-response,80,NA,1236,3,NA,NA,NA,NA,186281
I028,NA,NA,6/7/19,NA,NA,dynamic,audio-keyboard-response,81,sound/6star.wav,1236,NA,6,185,NA,NA,187787
I028,NA,NA,6/7/19,NA,NA,dynamic,html-button-response,82,NA,1236,3,NA,NA,NA,NA,189330
I028,NA,NA,6/7/19,NA,NA,dynamic,audio-keyboard-response,165,sound/8star.wav,1236,NA,8,465,NA,NA,325595
I028,NA,NA,6/7/19,NA,NA,dynamic,audio-button-response,166,sound/celebration.wav,1236,0,NA,NA,NA,NA,342773
I028,NA,NA,6/7/19,NA,NA,dynamic,html-button-response,167,"Which, if any, of these monsters ever gave you <b>1 star</b>?</p>",1236,0,NA,NA,correct,NA,353667
I028,NA,NA,6/7/19,NA,NA,dynamic,html-button-response,168,"Which, if any, of these monsters ever gave you <b>2 stars</b>?</p>",1236,1,NA,NA,correct,NA,359287
I028,NA,NA,6/7/19,NA,NA,dynamic,html-button-response,169,"Which, if any, of these monsters ever gave you <b>3 stars</b>?</p>",1236,2,NA,NA,correct,NA,365088
I028,NA,NA,6/7/19,NA,NA,dynamic,html-button-response,170,"Which, if any, of these monsters ever gave you <b>6 stars</b>?</p>",1236,3,NA,NA,correct,NA,368833
I028,NA,NA,6/7/19,NA,NA,dynamic,html-button-response,171,"Which, if any, of these monsters ever gave you <b>8 stars</b>?</p>",1236,0,NA,NA,correct,NA,372492
I028,NA,NA,6/7/19,NA,NA,dynamic,html-button-response,172,Which monster did you like the most?</p>,1236,1,NA,NA,NA,NA,379379
I028,NA,NA,6/7/19,NA,NA,dynamic,survey-text,173,NA,1236,NA,NA,NA,NA,"{""Q0"":""Favorite color""}",394533
I028,NA,NA,6/7/19,NA,NA,dynamic,html-button-response,52,NA,1236,3,NA,NA,NA,NA,149681
I028,NA,NA,6/7/19,NA,NA,dynamic,audio-keyboard-response,53,sound/6star.wav,1236,NA,6,105,NA,NA,151184
I028,NA,NA,6/7/19,NA,NA,dynamic,html-button-response,14,NA,1236,3,NA,NA,NA,NA,92478
I028,NA,NA,6/7/19,NA,NA,dynamic,audio-keyboard-response,15,sound/6star.wav,1236,NA,6,18,NA,NA,93982
I028,NA,NA,6/7/19,NA,NA,dynamic,html-button-response,16,NA,1236,3,NA,NA,NA,NA,96847
I028,NA,NA,6/7/19,NA,NA,dynamic,audio-keyboard-response,17,sound/6star.wav,1236,NA,6,24,NA,NA,98351
I028,NA,NA,6/7/19,NA,NA,dynamic,html-button-response,18,NA,1236,3,NA,NA,NA,NA,99275
I028,NA,NA,6/7/19,NA,NA,dynamic,audio-keyboard-response,19,sound/6star.wav,1236,NA,6,30,NA,NA,100780
I028,NA,NA,6/7/19,NA,NA,dynamic,html-button-response,20,NA,1236,1,NA,NA,NA,NA,101930
I028,NA,NA,6/7/19,NA,NA,dynamic,audio-keyboard-response,61,sound/6star.wav,1236,NA,6,129,NA,NA,162292
I028,NA,NA,6/7/19,NA,NA,dynamic,html-button-response,62,NA,1236,3,NA,NA,NA,NA,163415
I028,NA,NA,6/7/19,NA,NA,dynamic,audio-keyboard-response,63,sound/6star.wav,1236,NA,6,135,NA,NA,164918
I028,NA,NA,6/7/19,NA,NA,dynamic,html-button-response,64,NA,1236,3,NA,NA,NA,NA,165750
I028,NA,NA,6/7/19,NA,NA,dynamic,audio-keyboard-response,65,sound/6star.wav,1236,NA,6,141,NA,NA,167252
I028,NA,NA,6/7/19,NA,NA,dynamic,html-button-response,66,NA,1236,3,NA,NA,NA,NA,168230
I028,NA,NA,6/7/19,NA,NA,dynamic,audio-keyboard-response,67,sound/6star.wav,1236,NA,6,147,NA,NA,169732
I028,NA,NA,6/7/19,NA,NA,dynamic,html-button-response,68,NA,1236,3,NA,NA,NA,NA,170761
I028,NA,NA,6/7/19,NA,NA,dynamic,html-button-response,110,NA,1236,0,NA,NA,NA,NA,231734
I028,NA,NA,6/7/19,NA,NA,dynamic,audio-keyboard-response,111,sound/8star.wav,1236,NA,8,283,NA,NA,233239
I028,NA,NA,6/7/19,NA,NA,dynamic,html-button-response,112,NA,1236,0,NA,NA,NA,NA,234681
I028,NA,NA,6/7/19,NA,NA,dynamic,audio-keyboard-response,113,sound/8star.wav,1236,NA,8,291,NA,NA,236186
I028,NA,NA,6/7/19,NA,NA,dynamic,html-button-response,114,NA,1236,0,NA,NA,NA,NA,240145
I028,NA,NA,6/7/19,NA,NA,dynamic,audio-keyboard-response,115,sound/8star.wav,1236,NA,8,299,NA,NA,241647
I028,NA,NA,6/7/19,NA,NA,dynamic,html-button-response,116,NA,1236,0,NA,NA,NA,NA,246289
I028,NA,NA,6/7/19,NA,NA,dynamic,audio-keyboard-response,117,sound/8star.wav,1236,NA,8,307,NA,NA,247796
I028,NA,NA,6/7/19,NA,NA,dynamic,html-button-response,118,NA,1236,0,NA,NA,NA,NA,250038
I028,NA,NA,6/7/19,NA,NA,dynamic,audio-keyboard-response,119,sound/8star.wav,1236,NA,8,315,NA,NA,251541
I028,NA,NA,6/7/19,NA,NA,dynamic,html-button-response,120,NA,1236,0,NA,NA,NA,NA,252906
I028,NA,NA,6/7/19,NA,NA,dynamic,audio-keyboard-response,121,sound/8star.wav,1236,NA,8,323,NA,NA,254409
I028,NA,NA,6/7/19,NA,NA,dynamic,html-button-response,0,NA,1236,0,NA,NA,NA,NA,6175
I028,NA,NA,6/7/19,NA,NA,dynamic,animation,1,NA,1236,NA,NA,NA,NA,[],18184
I028,NA,NA,6/7/19,NA,NA,dynamic,html-button-response,2,<img src='img/screen1d.png'></img>,1236,0,NA,NA,NA,NA,28929
I028,NA,NA,6/7/19,NA,NA,dynamic,animation,3,NA,1236,NA,NA,NA,NA,[],49737
I028,NA,NA,6/7/19,NA,NA,dynamic,html-button-response,4,<img src='img/screen5e.jpg'></img>,1236,0,NA,NA,NA,NA,64858
I028,NA,NA,6/7/19,NA,NA,dynamic,html-button-response,5,<p align='center'></p>,1236,0,NA,NA,NA,NA,75163
I028,NA,NA,6/7/19,NA,NA,dynamic,html-button-response,6,NA,1236,3,NA,NA,NA,NA,78596
I028,NA,NA,6/7/19,NA,NA,dynamic,audio-keyboard-response,7,sound/6star.wav,1236,NA,6,6,NA,NA,80106
I028,NA,NA,6/7/19,NA,NA,dynamic,html-button-response,8,NA,1236,1,NA,NA,NA,NA,84109
I028,NA,NA,6/7/19,NA,NA,dynamic,audio-keyboard-response,9,sound/2star.wav,1236,NA,2,8,NA,NA,85616
I028,NA,NA,6/7/19,NA,NA,dynamic,html-button-response,10,NA,1236,0,NA,NA,NA,NA,86876
I028,NA,NA,6/7/19,NA,NA,dynamic,audio-keyboard-response,11,sound/1star.wav,1236,NA,1,9,NA,NA,88382
I028,NA,NA,6/7/19,NA,NA,dynamic,html-button-response,92,NA,1236,3,NA,NA,NA,NA,206769
I028,NA,NA,6/7/19,NA,NA,dynamic,audio-keyboard-response,93,sound/6star.wav,1236,NA,6,221,NA,NA,208273
I028,NA,NA,6/7/19,NA,NA,dynamic,html-button-response,54,NA,1236,3,NA,NA,NA,NA,152091
I028,NA,NA,6/7/19,NA,NA,dynamic,audio-keyboard-response,55,sound/6star.wav,1236,NA,6,111,NA,NA,153596
I028,NA,NA,6/7/19,NA,NA,dynamic,html-button-response,56,NA,1236,3,NA,NA,NA,NA,154775
I028,NA,NA,6/7/19,NA,NA,dynamic,audio-keyboard-response,57,sound/6star.wav,1236,NA,6,117,NA,NA,156279
I028,NA,NA,6/7/19,NA,NA,dynamic,html-button-response,58,NA,1236,3,NA,NA,NA,NA,157746
I028,NA,NA,6/7/19,NA,NA,dynamic,audio-keyboard-response,59,sound/6star.wav,1236,NA,6,123,NA,NA,159250
I028,NA,NA,6/7/19,NA,NA,dynamic,html-button-response,60,NA,1236,3,NA,NA,NA,NA,160787
I028,NA,NA,6/7/19,NA,NA,dynamic,audio-keyboard-response,101,sound/6star.wav,1236,NA,6,245,NA,NA,219747
I028,NA,NA,6/7/19,NA,NA,dynamic,html-button-response,22,NA,1236,0,NA,NA,NA,NA,104200
I028,NA,NA,6/7/19,NA,NA,dynamic,audio-keyboard-response,23,sound/1star.wav,1236,NA,1,33,NA,NA,105705
I028,NA,NA,6/7/19,NA,NA,dynamic,html-button-response,24,NA,1236,3,NA,NA,NA,NA,106501
I028,NA,NA,6/7/19,NA,NA,dynamic,audio-keyboard-response,25,sound/6star.wav,1236,NA,6,39,NA,NA,108007
I028,NA,NA,6/7/19,NA,NA,dynamic,html-button-response,26,NA,1236,3,NA,NA,NA,NA,109022
I028,NA,NA,6/7/19,NA,NA,dynamic,audio-keyboard-response,27,sound/6star.wav,1236,NA,6,45,NA,NA,110529
I028,NA,NA,6/7/19,NA,NA,dynamic,html-button-response,28,NA,1236,3,NA,NA,NA,NA,111352
I028,NA,NA,6/7/19,NA,NA,dynamic,audio-keyboard-response,29,sound/6star.wav,1236,NA,6,51,NA,NA,112856
I028,NA,NA,6/7/19,NA,NA,dynamic,html-button-response,30,NA,1236,3,NA,NA,NA,NA,113537
I028,NA,NA,6/7/19,NA,NA,dynamic,audio-keyboard-response,31,sound/6star.wav,1236,NA,6,57,NA,NA,115044
I028,NA,NA,6/7/19,NA,NA,dynamic,html-button-response,32,NA,1236,2,NA,NA,NA,NA,116117
I028,NA,NA,6/7/19,NA,NA,dynamic,audio-keyboard-response,33,sound/3star.wav,1236,NA,3,60,NA,NA,117620
I028,NA,NA,6/7/19,NA,NA,dynamic,html-button-response,34,NA,1236,0,NA,NA,NA,NA,118571
I028,NA,NA,6/7/19,NA,NA,dynamic,audio-keyboard-response,35,sound/1star.wav,1236,NA,1,61,NA,NA,120075
I028,NA,NA,6/7/19,NA,NA,dynamic,html-button-response,36,NA,1236,3,NA,NA,NA,NA,120800
I028,NA,NA,6/7/19,NA,NA,dynamic,audio-keyboard-response,37,sound/6star.wav,1236,NA,6,67,NA,NA,122305
I028,NA,NA,6/7/19,NA,NA,dynamic,html-button-response,38,NA,1236,1,NA,NA,NA,NA,123459
I028,NA,NA,6/7/19,NA,NA,dynamic,audio-keyboard-response,39,sound/2star.wav,1236,NA,2,69,NA,NA,124962
I028,NA,NA,6/7/19,NA,NA,dynamic,html-button-response,40,NA,1236,2,NA,NA,NA,NA,126226
I028,NA,NA,6/7/19,NA,NA,dynamic,audio-keyboard-response,41,sound/3star.wav,1236,NA,3,72,NA,NA,127731
I028,NA,NA,6/7/19,NA,NA,dynamic,html-button-response,42,NA,1236,3,NA,NA,NA,NA,128618
I028,NA,NA,6/7/19,NA,NA,dynamic,audio-keyboard-response,43,sound/6star.wav,1236,NA,6,78,NA,NA,130122
I028,NA,NA,6/7/19,NA,NA,dynamic,html-button-response,44,NA,1236,3,NA,NA,NA,NA,131557
I028,NA,NA,6/7/19,NA,NA,dynamic,audio-keyboard-response,45,sound/6star.wav,1236,NA,6,84,NA,NA,133062
I028,NA,NA,6/7/19,NA,NA,dynamic,html-button-response,46,NA,1236,2,NA,NA,NA,NA,134278
I028,NA,NA,6/7/19,NA,NA,dynamic,audio-keyboard-response,47,sound/3star.wav,1236,NA,3,87,NA,NA,135783
I028,NA,NA,6/7/19,NA,NA,dynamic,html-button-response,48,NA,1236,3,NA,NA,NA,NA,137145
I028,NA,NA,6/7/19,NA,NA,dynamic,audio-keyboard-response,49,sound/6star.wav,1236,NA,6,93,NA,NA,138649
I028,NA,NA,6/7/19,NA,NA,dynamic,html-button-response,50,NA,1236,3,NA,NA,NA,NA,141100
I028,NA,NA,6/7/19,NA,NA,dynamic,audio-keyboard-response,51,sound/6star.wav,1236,NA,6,99,NA,NA,142604
I028,NA,NA,6/7/19,NA,NA,dynamic,audio-keyboard-response,105,sound/8star.wav,1236,NA,8,259,NA,NA,224850
I028,NA,NA,6/7/19,NA,NA,dynamic,html-button-response,106,NA,1236,0,NA,NA,NA,NA,226091
I028,NA,NA,6/7/19,NA,NA,dynamic,html-button-response,94,NA,1236,3,NA,NA,NA,NA,210829
I028,NA,NA,6/7/19,NA,NA,dynamic,audio-keyboard-response,95,sound/6star.wav,1236,NA,6,227,NA,NA,212333
I028,NA,NA,6/7/19,NA,NA,dynamic,html-button-response,96,NA,1236,3,NA,NA,NA,NA,213264
I028,NA,NA,6/7/19,NA,NA,dynamic,audio-keyboard-response,97,sound/6star.wav,1236,NA,6,233,NA,NA,214768
I028,NA,NA,6/7/19,NA,NA,dynamic,html-button-response,98,NA,1236,3,NA,NA,NA,NA,215889
I028,NA,NA,6/7/19,NA,NA,dynamic,audio-keyboard-response,99,sound/6star.wav,1236,NA,6,239,NA,NA,217393
I028,NA,NA,6/7/19,NA,NA,dynamic,html-button-response,100,NA,1236,3,NA,NA,NA,NA,218236
I028,NA,NA,6/7/19,NA,NA,dynamic,audio-keyboard-response,87,sound/6star.wav,1236,NA,6,203,NA,NA,200398
I028,NA,NA,6/7/19,NA,NA,dynamic,html-button-response,102,NA,1236,3,NA,NA,NA,NA,220777
I028,NA,NA,6/7/19,NA,NA,dynamic,audio-keyboard-response,103,sound/6star.wav,1236,NA,6,251,NA,NA,222279
I028,NA,NA,6/7/19,NA,NA,dynamic,html-button-response,104,NA,1236,0,NA,NA,NA,NA,223347
I028,NA,NA,6/7/19,NA,NA,dynamic,audio-keyboard-response,91,sound/6star.wav,1236,NA,6,215,NA,NA,205018
I028,NA,NA,6/7/19,NA,NA,dynamic,audio-keyboard-response,83,sound/6star.wav,1236,NA,6,191,NA,NA,190836
I028,NA,NA,6/7/19,NA,NA,dynamic,audio-keyboard-response,107,sound/8star.wav,1236,NA,8,267,NA,NA,227596
I028,NA,NA,6/7/19,NA,NA,dynamic,html-button-response,108,NA,1236,0,NA,NA,NA,NA,228719
I028,NA,NA,6/7/19,NA,NA,dynamic,audio-keyboard-response,109,sound/8star.wav,1236,NA,8,275,NA,NA,230222
I028,NA,NA,6/7/19,NA,NA,dynamic,html-button-response,84,NA,1236,3,NA,NA,NA,NA,196549
I028,NA,NA,6/7/19,NA,NA,dynamic,audio-keyboard-response,85,sound/6star.wav,1236,NA,6,197,NA,NA,198053
I028,NA,NA,6/7/19,NA,NA,dynamic,html-button-response,86,NA,1236,3,NA,NA,NA,NA,198894
I028,NA,NA,6/7/19,NA,NA,dynamic,html-button-response,88,NA,1236,3,NA,NA,NA,NA,201261
I028,NA,NA,6/7/19,NA,NA,dynamic,audio-keyboard-response,89,sound/6star.wav,1236,NA,6,209,NA,NA,202765
I028,NA,NA,6/7/19,NA,NA,dynamic,html-button-response,90,NA,1236,3,NA,NA,NA,NA,203514
I029,NA,NA,6/7/19,NA,NA,static,html-button-response,84,NA,3126,0,NA,NA,NA,NA,180339
I029,NA,NA,6/7/19,NA,NA,static,html-button-response,92,NA,3126,0,NA,NA,NA,NA,190892
I029,NA,NA,6/7/19,NA,NA,static,audio-keyboard-response,83,sound/6star.wav,3126,NA,6,121,NA,NA,178867
I029,NA,NA,6/7/19,NA,NA,static,audio-keyboard-response,29,sound/1star.wav,3126,NA,1,36,NA,NA,98483
I029,NA,NA,6/7/19,NA,NA,static,html-button-response,30,NA,3126,3,NA,NA,NA,NA,99516
I029,NA,NA,6/7/19,NA,NA,static,audio-keyboard-response,31,sound/6star.wav,3126,NA,6,42,NA,NA,101025
I029,NA,NA,6/7/19,NA,NA,static,html-button-response,32,NA,3126,2,NA,NA,NA,NA,102594
I029,NA,NA,6/7/19,NA,NA,static,html-button-response,20,NA,3126,0,NA,NA,NA,NA,83888
I029,NA,NA,6/7/19,NA,NA,static,audio-keyboard-response,21,sound/3star.wav,3126,NA,3,24,NA,NA,85393
I029,NA,NA,6/7/19,NA,NA,static,html-button-response,22,NA,3126,3,NA,NA,NA,NA,88121
I029,NA,NA,6/7/19,NA,NA,static,audio-keyboard-response,23,sound/6star.wav,3126,NA,6,30,NA,NA,89626
I029,NA,NA,6/7/19,NA,NA,static,html-button-response,24,NA,3126,2,NA,NA,NA,NA,91666
I029,NA,NA,6/7/19,NA,NA,static,audio-keyboard-response,25,sound/2star.wav,3126,NA,2,32,NA,NA,93173
I029,NA,NA,6/7/19,NA,NA,static,html-button-response,26,NA,3126,0,NA,NA,NA,NA,94457
I029,NA,NA,6/7/19,NA,NA,static,audio-keyboard-response,27,sound/3star.wav,3126,NA,3,35,NA,NA,95963
I029,NA,NA,6/7/19,NA,NA,static,html-button-response,28,NA,3126,1,NA,NA,NA,NA,96978
I029,NA,NA,6/7/19,NA,NA,static,audio-keyboard-response,123,sound/1star.wav,3126,NA,1,176,NA,NA,238880
I029,NA,NA,6/7/19,NA,NA,static,html-button-response,124,NA,3126,0,NA,NA,NA,NA,239823
I029,NA,NA,6/7/19,NA,NA,static,audio-keyboard-response,85,sound/3star.wav,3126,NA,3,124,NA,NA,181844
I029,NA,NA,6/7/19,NA,NA,static,html-button-response,86,NA,3126,2,NA,NA,NA,NA,183044
I029,NA,NA,6/7/19,NA,NA,static,audio-keyboard-response,87,sound/2star.wav,3126,NA,2,126,NA,NA,184551
I029,NA,NA,6/7/19,NA,NA,static,html-button-response,88,NA,3126,2,NA,NA,NA,NA,185561
I029,NA,NA,6/7/19,NA,NA,static,audio-keyboard-response,89,sound/2star.wav,3126,NA,2,128,NA,NA,187070
I029,NA,NA,6/7/19,NA,NA,static,html-button-response,90,NA,3126,1,NA,NA,NA,NA,188245
I029,NA,NA,6/7/19,NA,NA,static,audio-keyboard-response,91,sound/1star.wav,3126,NA,1,129,NA,NA,189748
I029,NA,NA,6/7/19,NA,NA,static,audio-keyboard-response,11,sound/1star.wav,3126,NA,1,10,NA,NA,67879
I029,NA,NA,6/7/19,NA,NA,static,html-button-response,12,NA,3126,2,NA,NA,NA,NA,69958
I029,NA,NA,6/7/19,NA,NA,static,audio-keyboard-response,13,sound/2star.wav,3126,NA,2,12,NA,NA,71465
I029,NA,NA,6/7/19,NA,NA,static,html-button-response,14,NA,3126,3,NA,NA,NA,NA,74100
I029,NA,NA,6/7/19,NA,NA,static,audio-keyboard-response,15,sound/6star.wav,3126,NA,6,18,NA,NA,75608
I029,NA,NA,6/7/19,NA,NA,static,html-button-response,16,NA,3126,1,NA,NA,NA,NA,77114
I029,NA,NA,6/7/19,NA,NA,static,audio-keyboard-response,17,sound/1star.wav,3126,NA,1,19,NA,NA,78621
I029,NA,NA,6/7/19,NA,NA,static,html-button-response,18,NA,3126,2,NA,NA,NA,NA,80135
I029,NA,NA,6/7/19,NA,NA,static,audio-keyboard-response,19,sound/2star.wav,3126,NA,2,21,NA,NA,81640
I029,NA,NA,6/7/19,NA,NA,static,html-button-response,60,NA,3126,3,NA,NA,NA,NA,141925
I029,NA,NA,6/7/19,NA,NA,static,audio-keyboard-response,61,sound/6star.wav,3126,NA,6,84,NA,NA,143430
I029,NA,NA,6/7/19,NA,NA,static,html-button-response,62,NA,3126,3,NA,NA,NA,NA,150768
I029,NA,NA,6/7/19,NA,NA,static,audio-keyboard-response,63,sound/6star.wav,3126,NA,6,90,NA,NA,152272
I029,NA,NA,6/7/19,NA,NA,static,html-button-response,64,NA,3126,1,NA,NA,NA,NA,153855
I029,NA,NA,6/7/19,NA,NA,static,audio-keyboard-response,65,sound/1star.wav,3126,NA,1,91,NA,NA,155361
I029,NA,NA,6/7/19,NA,NA,static,html-button-response,66,NA,3126,2,NA,NA,NA,NA,156147
I029,NA,NA,6/7/19,NA,NA,static,audio-keyboard-response,67,sound/2star.wav,3126,NA,2,93,NA,NA,157651
I029,NA,NA,6/7/19,NA,NA,static,html-button-response,68,NA,3126,0,NA,NA,NA,NA,158680
I029,NA,NA,6/7/19,NA,NA,static,audio-keyboard-response,69,sound/3star.wav,3126,NA,3,96,NA,NA,160185
I029,NA,NA,6/7/19,NA,NA,static,html-button-response,70,NA,3126,3,NA,NA,NA,NA,161325
I029,NA,NA,6/7/19,NA,NA,static,audio-keyboard-response,71,sound/6star.wav,3126,NA,6,102,NA,NA,162828
I029,NA,NA,6/7/19,NA,NA,static,html-button-response,72,NA,3126,1,NA,NA,NA,NA,164162
I029,NA,NA,6/7/19,NA,NA,static,audio-keyboard-response,73,sound/1star.wav,3126,NA,1,103,NA,NA,165667
I029,NA,NA,6/7/19,NA,NA,static,html-button-response,74,NA,3126,2,NA,NA,NA,NA,166758
I029,NA,NA,6/7/19,NA,NA,static,audio-keyboard-response,75,sound/2star.wav,3126,NA,2,105,NA,NA,168261
I029,NA,NA,6/7/19,NA,NA,static,html-button-response,76,NA,3126,3,NA,NA,NA,NA,169212
I029,NA,NA,6/7/19,NA,NA,static,audio-keyboard-response,77,sound/6star.wav,3126,NA,6,111,NA,NA,170718
I029,NA,NA,6/7/19,NA,NA,static,html-button-response,78,NA,3126,0,NA,NA,NA,NA,172012
I029,NA,NA,6/7/19,NA,NA,static,audio-keyboard-response,79,sound/3star.wav,3126,NA,3,114,NA,NA,173516
I029,NA,NA,6/7/19,NA,NA,static,html-button-response,80,NA,3126,1,NA,NA,NA,NA,175003
I029,NA,NA,6/7/19,NA,NA,static,audio-keyboard-response,81,sound/1star.wav,3126,NA,1,115,NA,NA,176508
I029,NA,NA,6/7/19,NA,NA,static,html-button-response,82,NA,3126,3,NA,NA,NA,NA,177362
I029,NA,NA,6/7/19,NA,NA,static,html-button-response,0,NA,3126,0,NA,NA,NA,NA,6158
I029,NA,NA,6/7/19,NA,NA,static,animation,1,NA,3126,NA,NA,NA,NA,[],18169
I029,NA,NA,6/7/19,NA,NA,static,html-button-response,2,<img src='img/screen1d.png'></img>,3126,0,NA,NA,NA,NA,20484
I029,NA,NA,6/7/19,NA,NA,static,animation,3,NA,3126,NA,NA,NA,NA,[],41290
I029,NA,NA,6/7/19,NA,NA,static,html-button-response,4,<img src='img/screen5e.jpg'></img>,3126,0,NA,NA,NA,NA,42517
I029,NA,NA,6/7/19,NA,NA,static,html-button-response,5,<p align='center'></p>,3126,0,NA,NA,NA,NA,53785
I029,NA,NA,6/7/19,NA,NA,static,html-button-response,6,NA,3126,3,NA,NA,NA,NA,59018
I029,NA,NA,6/7/19,NA,NA,static,audio-keyboard-response,7,sound/6star.wav,3126,NA,6,6,NA,NA,60524
I029,NA,NA,6/7/19,NA,NA,static,html-button-response,8,NA,3126,0,NA,NA,NA,NA,63383
I029,NA,NA,6/7/19,NA,NA,static,audio-keyboard-response,9,sound/3star.wav,3126,NA,3,9,NA,NA,64890
I029,NA,NA,6/7/19,NA,NA,static,audio-keyboard-response,93,sound/3star.wav,3126,NA,3,132,NA,NA,192398
I029,NA,NA,6/7/19,NA,NA,static,html-button-response,94,NA,3126,1,NA,NA,NA,NA,194015
I029,NA,NA,6/7/19,NA,NA,static,audio-keyboard-response,95,sound/1star.wav,3126,NA,1,133,NA,NA,195518
I029,NA,NA,6/7/19,NA,NA,static,html-button-response,96,NA,3126,3,NA,NA,NA,NA,196586
I029,NA,NA,6/7/19,NA,NA,static,audio-keyboard-response,97,sound/6star.wav,3126,NA,6,139,NA,NA,198091
I029,NA,NA,6/7/19,NA,NA,static,html-button-response,98,NA,3126,1,NA,NA,NA,NA,199348
I029,NA,NA,6/7/19,NA,NA,static,audio-keyboard-response,99,sound/1star.wav,3126,NA,1,140,NA,NA,200853
I029,NA,NA,6/7/19,NA,NA,static,html-button-response,100,NA,3126,0,NA,NA,NA,NA,201725
I029,NA,NA,6/7/19,NA,NA,static,audio-keyboard-response,101,sound/3star.wav,3126,NA,3,143,NA,NA,203231
I029,NA,NA,6/7/19,NA,NA,static,html-button-response,102,NA,3126,2,NA,NA,NA,NA,204108
I029,NA,NA,6/7/19,NA,NA,static,audio-keyboard-response,103,sound/2star.wav,3126,NA,2,145,NA,NA,205621
I029,NA,NA,6/7/19,NA,NA,static,html-button-response,104,NA,3126,3,NA,NA,NA,NA,206451
I029,NA,NA,6/7/19,NA,NA,static,audio-keyboard-response,105,sound/6star.wav,3126,NA,6,151,NA,NA,207966
I029,NA,NA,6/7/19,NA,NA,static,html-button-response,106,NA,3126,1,NA,NA,NA,NA,209252
I029,NA,NA,6/7/19,NA,NA,static,audio-keyboard-response,107,sound/1star.wav,3126,NA,1,152,NA,NA,210760
I029,NA,NA,6/7/19,NA,NA,static,html-button-response,108,NA,3126,0,NA,NA,NA,NA,211584
I029,NA,NA,6/7/19,NA,NA,static,audio-keyboard-response,109,sound/3star.wav,3126,NA,3,155,NA,NA,213088
I029,NA,NA,6/7/19,NA,NA,static,html-button-response,110,NA,3126,2,NA,NA,NA,NA,213873
I029,NA,NA,6/7/19,NA,NA,static,audio-keyboard-response,111,sound/2star.wav,3126,NA,2,157,NA,NA,215378
I029,NA,NA,6/7/19,NA,NA,static,html-button-response,112,NA,3126,3,NA,NA,NA,NA,216421
I029,NA,NA,6/7/19,NA,NA,static,audio-keyboard-response,113,sound/6star.wav,3126,NA,6,163,NA,NA,217927
I029,NA,NA,6/7/19,NA,NA,static,html-button-response,114,NA,3126,1,NA,NA,NA,NA,227459
I029,NA,NA,6/7/19,NA,NA,static,audio-keyboard-response,115,sound/1star.wav,3126,NA,1,164,NA,NA,228964
I029,NA,NA,6/7/19,NA,NA,static,html-button-response,116,NA,3126,2,NA,NA,NA,NA,229727
I029,NA,NA,6/7/19,NA,NA,static,audio-keyboard-response,117,sound/2star.wav,3126,NA,2,166,NA,NA,231233
I029,NA,NA,6/7/19,NA,NA,static,html-button-response,118,NA,3126,0,NA,NA,NA,NA,232034
I029,NA,NA,6/7/19,NA,NA,static,audio-keyboard-response,119,sound/3star.wav,3126,NA,3,169,NA,NA,233540
I029,NA,NA,6/7/19,NA,NA,static,html-button-response,120,NA,3126,3,NA,NA,NA,NA,234533
I029,NA,NA,6/7/19,NA,NA,static,audio-keyboard-response,121,sound/6star.wav,3126,NA,6,175,NA,NA,236036
I029,NA,NA,6/7/19,NA,NA,static,html-button-response,122,NA,3126,1,NA,NA,NA,NA,237377
I029,NA,NA,6/7/19,NA,NA,static,html-button-response,42,NA,3126,0,NA,NA,NA,NA,116343
I029,NA,NA,6/7/19,NA,NA,static,audio-keyboard-response,43,sound/3star.wav,3126,NA,3,54,NA,NA,117849
I029,NA,NA,6/7/19,NA,NA,static,html-button-response,44,NA,3126,3,NA,NA,NA,NA,118834
I029,NA,NA,6/7/19,NA,NA,static,audio-keyboard-response,45,sound/6star.wav,3126,NA,6,60,NA,NA,120340
I029,NA,NA,6/7/19,NA,NA,static,html-button-response,46,NA,3126,1,NA,NA,NA,NA,122103
I029,NA,NA,6/7/19,NA,NA,static,audio-keyboard-response,47,sound/1star.wav,3126,NA,1,61,NA,NA,123609
I029,NA,NA,6/7/19,NA,NA,static,html-button-response,48,NA,3126,0,NA,NA,NA,NA,124866
I029,NA,NA,6/7/19,NA,NA,static,audio-keyboard-response,49,sound/3star.wav,3126,NA,3,64,NA,NA,126376
I029,NA,NA,6/7/19,NA,NA,static,html-button-response,50,NA,3126,2,NA,NA,NA,NA,127396
I029,NA,NA,6/7/19,NA,NA,static,audio-keyboard-response,51,sound/2star.wav,3126,NA,2,66,NA,NA,128901
I029,NA,NA,6/7/19,NA,NA,static,html-button-response,10,NA,3126,1,NA,NA,NA,NA,66374
I029,NA,NA,6/7/19,NA,NA,static,html-button-response,132,NA,3126,2,NA,NA,NA,NA,249711
I029,NA,NA,6/7/19,NA,NA,static,audio-keyboard-response,133,sound/2star.wav,3126,NA,2,190,NA,NA,251214
I029,NA,NA,6/7/19,NA,NA,static,html-button-response,134,NA,3126,3,NA,NA,NA,NA,253257
I029,NA,NA,6/7/19,NA,NA,static,audio-keyboard-response,135,sound/6star.wav,3126,NA,6,196,NA,NA,254762
I029,NA,NA,6/7/19,NA,NA,static,html-button-response,136,NA,3126,0,NA,NA,NA,NA,256966
I029,NA,NA,6/7/19,NA,NA,static,audio-keyboard-response,137,sound/3star.wav,3126,NA,3,199,NA,NA,258469
I029,NA,NA,6/7/19,NA,NA,static,html-button-response,138,NA,3126,3,NA,NA,NA,NA,259771
I029,NA,NA,6/7/19,NA,NA,static,audio-keyboard-response,139,sound/6star.wav,3126,NA,6,205,NA,NA,261275
I029,NA,NA,6/7/19,NA,NA,static,html-button-response,140,NA,3126,1,NA,NA,NA,NA,263126
I029,NA,NA,6/7/19,NA,NA,static,audio-keyboard-response,141,sound/1star.wav,3126,NA,1,206,NA,NA,264630
I029,NA,NA,6/7/19,NA,NA,static,html-button-response,142,NA,3126,2,NA,NA,NA,NA,265551
I029,NA,NA,6/7/19,NA,NA,static,audio-keyboard-response,143,sound/2star.wav,3126,NA,2,208,NA,NA,267057
I029,NA,NA,6/7/19,NA,NA,static,html-button-response,144,NA,3126,1,NA,NA,NA,NA,268331
I029,NA,NA,6/7/19,NA,NA,static,audio-keyboard-response,145,sound/1star.wav,3126,NA,1,209,NA,NA,269836
I029,NA,NA,6/7/19,NA,NA,static,html-button-response,146,NA,3126,3,NA,NA,NA,NA,270858
I029,NA,NA,6/7/19,NA,NA,static,audio-keyboard-response,147,sound/6star.wav,3126,NA,6,215,NA,NA,272363
I029,NA,NA,6/7/19,NA,NA,static,html-button-response,148,NA,3126,0,NA,NA,NA,NA,273447
I029,NA,NA,6/7/19,NA,NA,static,audio-keyboard-response,149,sound/3star.wav,3126,NA,3,218,NA,NA,274959
I029,NA,NA,6/7/19,NA,NA,static,html-button-response,150,NA,3126,3,NA,NA,NA,NA,276308
I029,NA,NA,6/7/19,NA,NA,static,audio-keyboard-response,151,sound/6star.wav,3126,NA,6,224,NA,NA,277812
I029,NA,NA,6/7/19,NA,NA,static,audio-keyboard-response,33,sound/2star.wav,3126,NA,2,44,NA,NA,104097
I029,NA,NA,6/7/19,NA,NA,static,html-button-response,34,NA,3126,1,NA,NA,NA,NA,105498
I029,NA,NA,6/7/19,NA,NA,static,audio-keyboard-response,35,sound/1star.wav,3126,NA,1,45,NA,NA,107006
I029,NA,NA,6/7/19,NA,NA,static,html-button-response,36,NA,3126,0,NA,NA,NA,NA,108207
I029,NA,NA,6/7/19,NA,NA,static,audio-keyboard-response,37,sound/3star.wav,3126,NA,3,48,NA,NA,109712
I029,NA,NA,6/7/19,NA,NA,static,html-button-response,38,NA,3126,2,NA,NA,NA,NA,111031
I029,NA,NA,6/7/19,NA,NA,static,audio-keyboard-response,39,sound/2star.wav,3126,NA,2,50,NA,NA,112535
I029,NA,NA,6/7/19,NA,NA,static,html-button-response,40,NA,3126,1,NA,NA,NA,NA,113752
I029,NA,NA,6/7/19,NA,NA,static,audio-keyboard-response,41,sound/1star.wav,3126,NA,1,51,NA,NA,115258
I029,NA,NA,6/7/19,NA,NA,static,html-button-response,158,NA,3126,3,NA,NA,NA,NA,286062
I029,NA,NA,6/7/19,NA,NA,static,audio-keyboard-response,159,sound/6star.wav,3126,NA,6,236,NA,NA,287566
I029,NA,NA,6/7/19,NA,NA,static,html-button-response,160,NA,3126,1,NA,NA,NA,NA,289137
I029,NA,NA,6/7/19,NA,NA,static,audio-keyboard-response,161,sound/1star.wav,3126,NA,1,237,NA,NA,290647
I029,NA,NA,6/7/19,NA,NA,static,html-button-response,162,NA,3126,3,NA,NA,NA,NA,291863
I029,NA,NA,6/7/19,NA,NA,static,audio-keyboard-response,125,sound/3star.wav,3126,NA,3,179,NA,NA,241328
I029,NA,NA,6/7/19,NA,NA,static,html-button-response,126,NA,3126,2,NA,NA,NA,NA,242479
I029,NA,NA,6/7/19,NA,NA,static,audio-keyboard-response,127,sound/2star.wav,3126,NA,2,181,NA,NA,243982
I029,NA,NA,6/7/19,NA,NA,static,html-button-response,128,NA,3126,3,NA,NA,NA,NA,244715
I029,NA,NA,6/7/19,NA,NA,static,audio-keyboard-response,129,sound/6star.wav,3126,NA,6,187,NA,NA,246221
I029,NA,NA,6/7/19,NA,NA,static,html-button-response,52,NA,3126,3,NA,NA,NA,NA,129917
I029,NA,NA,6/7/19,NA,NA,static,audio-keyboard-response,53,sound/6star.wav,3126,NA,6,72,NA,NA,131421
I029,NA,NA,6/7/19,NA,NA,static,html-button-response,54,NA,3126,1,NA,NA,NA,NA,132885
I029,NA,NA,6/7/19,NA,NA,static,audio-keyboard-response,55,sound/1star.wav,3126,NA,1,73,NA,NA,134390
I029,NA,NA,6/7/19,NA,NA,static,html-button-response,56,NA,3126,0,NA,NA,NA,NA,135259
I029,NA,NA,6/7/19,NA,NA,static,audio-keyboard-response,57,sound/3star.wav,3126,NA,3,76,NA,NA,136766
I029,NA,NA,6/7/19,NA,NA,static,html-button-response,58,NA,3126,2,NA,NA,NA,NA,139373
I029,NA,NA,6/7/19,NA,NA,static,audio-keyboard-response,59,sound/2star.wav,3126,NA,2,78,NA,NA,140884
I029,NA,NA,6/7/19,NA,NA,static,audio-keyboard-response,153,sound/1star.wav,3126,NA,1,225,NA,NA,280503
I029,NA,NA,6/7/19,NA,NA,static,audio-keyboard-response,163,sound/6star.wav,3126,NA,6,243,NA,NA,293372
I029,NA,NA,6/7/19,NA,NA,static,html-button-response,164,NA,3126,0,NA,NA,NA,NA,301212
I029,NA,NA,6/7/19,NA,NA,static,html-button-response,152,NA,3126,1,NA,NA,NA,NA,278997
I029,NA,NA,6/7/19,NA,NA,static,audio-keyboard-response,157,sound/2star.wav,3126,NA,2,230,NA,NA,285212
I029,NA,NA,6/7/19,NA,NA,static,html-button-response,154,NA,3126,0,NA,NA,NA,NA,281322
I029,NA,NA,6/7/19,NA,NA,static,audio-keyboard-response,155,sound/3star.wav,3126,NA,3,228,NA,NA,282828
I029,NA,NA,6/7/19,NA,NA,static,html-button-response,156,NA,3126,2,NA,NA,NA,NA,283709
I029,NA,NA,6/7/19,NA,NA,static,audio-keyboard-response,165,sound/3star.wav,3126,NA,3,246,NA,NA,302717
I029,NA,NA,6/7/19,NA,NA,static,html-button-response,171,"Which, if any, of these monsters ever gave you <b>8 stars</b>?</p>",3126,4,NA,NA,correct,NA,343717
I029,NA,NA,6/7/19,NA,NA,static,html-button-response,172,Which monster did you like the most?</p>,3126,1,NA,NA,NA,NA,349950
I029,NA,NA,6/7/19,NA,NA,static,survey-text,173,NA,3126,NA,NA,NA,NA,"{""Q0"":""Horns ""}",354966
I029,NA,NA,6/7/19,NA,NA,static,audio-keyboard-response,131,sound/1star.wav,3126,NA,1,188,NA,NA,248790
I029,NA,NA,6/7/19,NA,NA,static,audio-button-response,166,sound/celebration.wav,3126,0,NA,NA,NA,NA,312888
I029,NA,NA,6/7/19,NA,NA,static,html-button-response,167,"Which, if any, of these monsters ever gave you <b>1 star</b>?</p>",3126,2,NA,NA,incorrect,NA,322327
I029,NA,NA,6/7/19,NA,NA,static,html-button-response,130,NA,3126,1,NA,NA,NA,NA,247284
I029,NA,NA,6/7/19,NA,NA,static,html-button-response,170,"Which, if any, of these monsters ever gave you <b>6 stars</b>?</p>",3126,3,NA,NA,correct,NA,338189
I029,NA,NA,6/7/19,NA,NA,static,html-button-response,169,"Which, if any, of these monsters ever gave you <b>3 stars</b>?</p>",3126,0,NA,NA,correct,NA,334624
I029,NA,NA,6/7/19,NA,NA,static,html-button-response,168,"Which, if any, of these monsters ever gave you <b>2 stars</b>?</p>",3126,2,NA,NA,correct,NA,328615
I030,NA,NA,9-Jun-19,NA,NA,dynamic,html-button-response,126,NA,3261,1,NA,NA,NA,NA,309720
I030,NA,NA,9-Jun-19,NA,NA,dynamic,html-button-response,128,NA,3261,2,NA,NA,NA,NA,313593
I030,NA,NA,9-Jun-19,NA,NA,dynamic,html-button-response,138,NA,3261,1,NA,NA,NA,NA,329039
I030,NA,NA,9-Jun-19,NA,NA,dynamic,audio-keyboard-response,127,sound/2star.wav,3261,NA,2,224,NA,NA,311225
I030,NA,NA,9-Jun-19,NA,NA,dynamic,html-button-response,136,NA,3261,2,NA,NA,NA,NA,325879
I030,NA,NA,9-Jun-19,NA,NA,dynamic,audio-keyboard-response,137,sound/6star.wav,3261,NA,6,249,NA,NA,327384
I030,NA,NA,9-Jun-19,NA,NA,dynamic,audio-keyboard-response,139,sound/2star.wav,3261,NA,2,251,NA,NA,330545
I030,NA,NA,9-Jun-19,NA,NA,dynamic,audio-keyboard-response,135,sound/3star.wav,3261,NA,3,243,NA,NA,324667
I030,NA,NA,9-Jun-19,NA,NA,dynamic,html-button-response,140,NA,3261,2,NA,NA,NA,NA,331825
I030,NA,NA,9-Jun-19,NA,NA,dynamic,audio-keyboard-response,141,sound/6star.wav,3261,NA,6,257,NA,NA,333328
I030,NA,NA,9-Jun-19,NA,NA,dynamic,html-button-response,154,NA,3261,0,NA,NA,NA,NA,362486
I030,NA,NA,9-Jun-19,NA,NA,dynamic,audio-keyboard-response,155,sound/3star.wav,3261,NA,3,293,NA,NA,363991
I030,NA,NA,9-Jun-19,NA,NA,dynamic,audio-keyboard-response,131,sound/8star.wav,3261,NA,8,238,NA,NA,318858
I030,NA,NA,9-Jun-19,NA,NA,dynamic,html-button-response,132,NA,3261,1,NA,NA,NA,NA,320393
I030,NA,NA,9-Jun-19,NA,NA,dynamic,audio-keyboard-response,129,sound/6star.wav,3261,NA,6,230,NA,NA,315098
I030,NA,NA,9-Jun-19,NA,NA,dynamic,html-button-response,130,NA,3261,3,NA,NA,NA,NA,317340
I030,NA,NA,9-Jun-19,NA,NA,dynamic,audio-keyboard-response,151,sound/8star.wav,3261,NA,8,284,NA,NA,352501
I030,NA,NA,9-Jun-19,NA,NA,dynamic,html-button-response,152,NA,3261,2,NA,NA,NA,NA,359222
I030,NA,NA,9-Jun-19,NA,NA,dynamic,audio-keyboard-response,153,sound/6star.wav,3261,NA,6,290,NA,NA,360726
I030,NA,NA,9-Jun-19,NA,NA,dynamic,audio-keyboard-response,165,sound/3star.wav,3261,NA,3,320,NA,NA,379315
I030,NA,NA,9-Jun-19,NA,NA,dynamic,audio-button-response,166,sound/celebration.wav,3261,0,NA,NA,NA,NA,393214
I030,NA,NA,9-Jun-19,NA,NA,dynamic,html-button-response,167,"Which, if any, of these monsters ever gave you <b>1 star</b>?</p>",3261,3,NA,NA,correct,NA,408401
I030,NA,NA,9-Jun-19,NA,NA,dynamic,html-button-response,168,"Which, if any, of these monsters ever gave you <b>2 stars</b>?</p>",3261,1,NA,NA,correct,NA,415530
I030,NA,NA,9-Jun-19,NA,NA,dynamic,html-button-response,169,"Which, if any, of these monsters ever gave you <b>3 stars</b>?</p>",3261,0,NA,NA,correct,NA,422060
I030,NA,NA,9-Jun-19,NA,NA,dynamic,html-button-response,170,"Which, if any, of these monsters ever gave you <b>6 stars</b>?</p>",3261,2,NA,NA,correct,NA,428894
I030,NA,NA,9-Jun-19,NA,NA,dynamic,html-button-response,171,"Which, if any, of these monsters ever gave you <b>8 stars</b>?</p>",3261,3,NA,NA,correct,NA,439376
I030,NA,NA,9-Jun-19,NA,NA,dynamic,html-button-response,172,Which monster did you like the most?</p>,3261,1,NA,NA,NA,NA,446869
I030,NA,NA,9-Jun-19,NA,NA,dynamic,audio-keyboard-response,133,sound/2star.wav,3261,NA,2,240,NA,NA,321902
I030,NA,NA,9-Jun-19,NA,NA,dynamic,html-button-response,134,NA,3261,0,NA,NA,NA,NA,323164
I030,NA,NA,9-Jun-19,NA,NA,dynamic,audio-keyboard-response,51,sound/2star.wav,3261,NA,2,71,NA,NA,171947
I030,NA,NA,9-Jun-19,NA,NA,dynamic,html-button-response,52,NA,3261,2,NA,NA,NA,NA,173006
I030,NA,NA,9-Jun-19,NA,NA,dynamic,audio-keyboard-response,53,sound/6star.wav,3261,NA,6,77,NA,NA,174510
I030,NA,NA,9-Jun-19,NA,NA,dynamic,html-button-response,54,NA,3261,3,NA,NA,NA,NA,175979
I030,NA,NA,9-Jun-19,NA,NA,dynamic,audio-keyboard-response,55,sound/1star.wav,3261,NA,1,78,NA,NA,177483
I030,NA,NA,9-Jun-19,NA,NA,dynamic,html-button-response,56,NA,3261,0,NA,NA,NA,NA,178625
I030,NA,NA,9-Jun-19,NA,NA,dynamic,audio-keyboard-response,57,sound/3star.wav,3261,NA,3,81,NA,NA,180131
I030,NA,NA,9-Jun-19,NA,NA,dynamic,html-button-response,58,NA,3261,1,NA,NA,NA,NA,181888
I030,NA,NA,9-Jun-19,NA,NA,dynamic,html-button-response,142,NA,3261,3,NA,NA,NA,NA,335198
I030,NA,NA,9-Jun-19,NA,NA,dynamic,audio-keyboard-response,143,sound/8star.wav,3261,NA,8,265,NA,NA,336716
I030,NA,NA,9-Jun-19,NA,NA,dynamic,html-button-response,144,NA,3261,1,NA,NA,NA,NA,340009
I030,NA,NA,9-Jun-19,NA,NA,dynamic,survey-text,173,NA,3261,NA,NA,NA,NA,"{""Q0"":""Favorite color""}",454905
I030,NA,NA,9-Jun-19,NA,NA,dynamic,html-button-response,50,NA,3261,1,NA,NA,NA,NA,170443
I030,NA,NA,9-Jun-19,NA,NA,dynamic,audio-keyboard-response,147,sound/6star.wav,3261,NA,6,273,NA,NA,344400
I030,NA,NA,9-Jun-19,NA,NA,dynamic,html-button-response,148,NA,3261,0,NA,NA,NA,NA,346196
I030,NA,NA,9-Jun-19,NA,NA,dynamic,audio-keyboard-response,149,sound/3star.wav,3261,NA,3,276,NA,NA,347699
I030,NA,NA,9-Jun-19,NA,NA,dynamic,html-button-response,150,NA,3261,3,NA,NA,NA,NA,350996
I030,NA,NA,9-Jun-19,NA,NA,dynamic,html-button-response,28,NA,3261,3,NA,NA,NA,NA,134008
I030,NA,NA,9-Jun-19,NA,NA,dynamic,audio-keyboard-response,29,sound/1star.wav,3261,NA,1,36,NA,NA,135515
I030,NA,NA,9-Jun-19,NA,NA,dynamic,html-button-response,156,NA,3261,3,NA,NA,NA,NA,365457
I030,NA,NA,9-Jun-19,NA,NA,dynamic,audio-keyboard-response,157,sound/8star.wav,3261,NA,8,301,NA,NA,366963
I030,NA,NA,9-Jun-19,NA,NA,dynamic,html-button-response,158,NA,3261,1,NA,NA,NA,NA,369115
I030,NA,NA,9-Jun-19,NA,NA,dynamic,audio-keyboard-response,159,sound/2star.wav,3261,NA,2,303,NA,NA,370619
I030,NA,NA,9-Jun-19,NA,NA,dynamic,html-button-response,160,NA,3261,2,NA,NA,NA,NA,371835
I030,NA,NA,9-Jun-19,NA,NA,dynamic,audio-keyboard-response,145,sound/2star.wav,3261,NA,2,267,NA,NA,341512
I030,NA,NA,9-Jun-19,NA,NA,dynamic,html-button-response,146,NA,3261,2,NA,NA,NA,NA,342893
I030,NA,NA,9-Jun-19,NA,NA,dynamic,audio-keyboard-response,161,sound/6star.wav,3261,NA,6,309,NA,NA,373338
I030,NA,NA,9-Jun-19,NA,NA,dynamic,html-button-response,162,NA,3261,3,NA,NA,NA,NA,374649
I030,NA,NA,9-Jun-19,NA,NA,dynamic,audio-keyboard-response,163,sound/8star.wav,3261,NA,8,317,NA,NA,376155
I030,NA,NA,9-Jun-19,NA,NA,dynamic,html-button-response,164,NA,3261,0,NA,NA,NA,NA,377809
I030,NA,NA,9-Jun-19,NA,NA,dynamic,audio-keyboard-response,81,sound/1star.wav,3261,NA,1,119,NA,NA,229839
I030,NA,NA,9-Jun-19,NA,NA,dynamic,html-button-response,82,NA,3261,2,NA,NA,NA,NA,231406
I030,NA,NA,9-Jun-19,NA,NA,dynamic,audio-keyboard-response,83,sound/6star.wav,3261,NA,6,125,NA,NA,232921
I030,NA,NA,9-Jun-19,NA,NA,dynamic,html-button-response,84,NA,3261,1,NA,NA,NA,NA,236047
I030,NA,NA,9-Jun-19,NA,NA,dynamic,audio-keyboard-response,85,sound/2star.wav,3261,NA,2,127,NA,NA,237551
I030,NA,NA,9-Jun-19,NA,NA,dynamic,html-button-response,86,NA,3261,0,NA,NA,NA,NA,239366
I030,NA,NA,9-Jun-19,NA,NA,dynamic,audio-keyboard-response,87,sound/3star.wav,3261,NA,3,130,NA,NA,240873
I030,NA,NA,9-Jun-19,NA,NA,dynamic,html-button-response,88,NA,3261,3,NA,NA,NA,NA,242775
I030,NA,NA,9-Jun-19,NA,NA,dynamic,audio-keyboard-response,89,sound/8star.wav,3261,NA,8,138,NA,NA,244278
I030,NA,NA,9-Jun-19,NA,NA,dynamic,html-button-response,90,NA,3261,1,NA,NA,NA,NA,246492
I030,NA,NA,9-Jun-19,NA,NA,dynamic,audio-keyboard-response,91,sound/2star.wav,3261,NA,2,140,NA,NA,247995
I030,NA,NA,9-Jun-19,NA,NA,dynamic,html-button-response,92,NA,3261,2,NA,NA,NA,NA,249039
I030,NA,NA,9-Jun-19,NA,NA,dynamic,audio-keyboard-response,93,sound/6star.wav,3261,NA,6,146,NA,NA,250543
I030,NA,NA,9-Jun-19,NA,NA,dynamic,html-button-response,94,NA,3261,0,NA,NA,NA,NA,252713
I030,NA,NA,9-Jun-19,NA,NA,dynamic,audio-keyboard-response,95,sound/3star.wav,3261,NA,3,149,NA,NA,254218
I030,NA,NA,9-Jun-19,NA,NA,dynamic,html-button-response,96,NA,3261,3,NA,NA,NA,NA,255257
I030,NA,NA,9-Jun-19,NA,NA,dynamic,audio-keyboard-response,97,sound/8star.wav,3261,NA,8,157,NA,NA,256763
I030,NA,NA,9-Jun-19,NA,NA,dynamic,html-button-response,98,NA,3261,1,NA,NA,NA,NA,258863
I030,NA,NA,9-Jun-19,NA,NA,dynamic,audio-keyboard-response,59,sound/2star.wav,3261,NA,2,83,NA,NA,183396
I030,NA,NA,9-Jun-19,NA,NA,dynamic,html-button-response,60,NA,3261,2,NA,NA,NA,NA,184649
I030,NA,NA,9-Jun-19,NA,NA,dynamic,audio-keyboard-response,61,sound/6star.wav,3261,NA,6,89,NA,NA,186155
I030,NA,NA,9-Jun-19,NA,NA,dynamic,html-button-response,62,NA,3261,0,NA,NA,NA,NA,187785
I030,NA,NA,9-Jun-19,NA,NA,dynamic,audio-keyboard-response,63,sound/3star.wav,3261,NA,3,92,NA,NA,189294
I030,NA,NA,9-Jun-19,NA,NA,dynamic,html-button-response,64,NA,3261,0,NA,NA,NA,NA,203570
I030,NA,NA,9-Jun-19,NA,NA,dynamic,audio-keyboard-response,65,sound/3star.wav,3261,NA,3,95,NA,NA,205113
I030,NA,NA,9-Jun-19,NA,NA,dynamic,html-button-response,66,NA,3261,2,NA,NA,NA,NA,206617
I030,NA,NA,9-Jun-19,NA,NA,dynamic,audio-keyboard-response,67,sound/6star.wav,3261,NA,6,101,NA,NA,208130
I030,NA,NA,9-Jun-19,NA,NA,dynamic,html-button-response,68,NA,3261,1,NA,NA,NA,NA,209687
I030,NA,NA,9-Jun-19,NA,NA,dynamic,audio-keyboard-response,69,sound/2star.wav,3261,NA,2,103,NA,NA,211194
I030,NA,NA,9-Jun-19,NA,NA,dynamic,html-button-response,30,NA,3261,2,NA,NA,NA,NA,136755
I030,NA,NA,9-Jun-19,NA,NA,dynamic,audio-keyboard-response,31,sound/6star.wav,3261,NA,6,42,NA,NA,138258
I030,NA,NA,9-Jun-19,NA,NA,dynamic,html-button-response,32,NA,3261,3,NA,NA,NA,NA,139853
I030,NA,NA,9-Jun-19,NA,NA,dynamic,audio-keyboard-response,33,sound/1star.wav,3261,NA,1,43,NA,NA,141360
I030,NA,NA,9-Jun-19,NA,NA,dynamic,html-button-response,34,NA,3261,0,NA,NA,NA,NA,142861
I030,NA,NA,9-Jun-19,NA,NA,dynamic,audio-keyboard-response,35,sound/3star.wav,3261,NA,3,46,NA,NA,144366
I030,NA,NA,9-Jun-19,NA,NA,dynamic,html-button-response,36,NA,3261,1,NA,NA,NA,NA,146482
I030,NA,NA,9-Jun-19,NA,NA,dynamic,audio-keyboard-response,77,sound/2star.wav,3261,NA,2,115,NA,NA,224286
I030,NA,NA,9-Jun-19,NA,NA,dynamic,html-button-response,78,NA,3261,0,NA,NA,NA,NA,225626
I030,NA,NA,9-Jun-19,NA,NA,dynamic,audio-keyboard-response,79,sound/3star.wav,3261,NA,3,118,NA,NA,227133
I030,NA,NA,9-Jun-19,NA,NA,dynamic,html-button-response,80,NA,3261,3,NA,NA,NA,NA,228334
I030,NA,NA,9-Jun-19,NA,NA,dynamic,html-button-response,0,NA,3261,0,NA,NA,NA,NA,30953
I030,NA,NA,9-Jun-19,NA,NA,dynamic,animation,1,NA,3261,NA,NA,NA,NA,[],42962
I030,NA,NA,9-Jun-19,NA,NA,dynamic,html-button-response,2,<img src='img/screen1d.png'></img>,3261,0,NA,NA,NA,NA,45905
I030,NA,NA,9-Jun-19,NA,NA,dynamic,animation,3,NA,3261,NA,NA,NA,NA,[],66710
I030,NA,NA,9-Jun-19,NA,NA,dynamic,html-button-response,4,<img src='img/screen5e.jpg'></img>,3261,0,NA,NA,NA,NA,69947
I030,NA,NA,9-Jun-19,NA,NA,dynamic,html-button-response,5,<p align='center'></p>,3261,0,NA,NA,NA,NA,81313
I030,NA,NA,9-Jun-19,NA,NA,dynamic,html-button-response,6,NA,3261,1,NA,NA,NA,NA,85829
I030,NA,NA,9-Jun-19,NA,NA,dynamic,audio-keyboard-response,7,sound/2star.wav,3261,NA,2,2,NA,NA,87349
I030,NA,NA,9-Jun-19,NA,NA,dynamic,html-button-response,8,NA,3261,2,NA,NA,NA,NA,92795
I030,NA,NA,9-Jun-19,NA,NA,dynamic,audio-keyboard-response,9,sound/6star.wav,3261,NA,6,8,NA,NA,94299
I030,NA,NA,9-Jun-19,NA,NA,dynamic,html-button-response,10,NA,3261,0,NA,NA,NA,NA,98642
I030,NA,NA,9-Jun-19,NA,NA,dynamic,audio-keyboard-response,11,sound/3star.wav,3261,NA,3,11,NA,NA,100145
I030,NA,NA,9-Jun-19,NA,NA,dynamic,html-button-response,12,NA,3261,3,NA,NA,NA,NA,102313
I030,NA,NA,9-Jun-19,NA,NA,dynamic,audio-keyboard-response,13,sound/1star.wav,3261,NA,1,12,NA,NA,103817
I030,NA,NA,9-Jun-19,NA,NA,dynamic,html-button-response,14,NA,3261,2,NA,NA,NA,NA,106560
I030,NA,NA,9-Jun-19,NA,NA,dynamic,audio-keyboard-response,15,sound/6star.wav,3261,NA,6,18,NA,NA,108071
I030,NA,NA,9-Jun-19,NA,NA,dynamic,html-button-response,16,NA,3261,0,NA,NA,NA,NA,111351
I030,NA,NA,9-Jun-19,NA,NA,dynamic,audio-keyboard-response,17,sound/3star.wav,3261,NA,3,21,NA,NA,112857
I030,NA,NA,9-Jun-19,NA,NA,dynamic,html-button-response,18,NA,3261,1,NA,NA,NA,NA,115255
I030,NA,NA,9-Jun-19,NA,NA,dynamic,audio-keyboard-response,19,sound/2star.wav,3261,NA,2,23,NA,NA,116759
I030,NA,NA,9-Jun-19,NA,NA,dynamic,html-button-response,20,NA,3261,3,NA,NA,NA,NA,118531
I030,NA,NA,9-Jun-19,NA,NA,dynamic,audio-keyboard-response,21,sound/1star.wav,3261,NA,1,24,NA,NA,120035
I030,NA,NA,9-Jun-19,NA,NA,dynamic,html-button-response,22,NA,3261,2,NA,NA,NA,NA,122050
I030,NA,NA,9-Jun-19,NA,NA,dynamic,audio-keyboard-response,23,sound/6star.wav,3261,NA,6,30,NA,NA,123556
I030,NA,NA,9-Jun-19,NA,NA,dynamic,html-button-response,24,NA,3261,0,NA,NA,NA,NA,125458
I030,NA,NA,9-Jun-19,NA,NA,dynamic,audio-keyboard-response,25,sound/3star.wav,3261,NA,3,33,NA,NA,126964
I030,NA,NA,9-Jun-19,NA,NA,dynamic,html-button-response,26,NA,3261,1,NA,NA,NA,NA,130699
I030,NA,NA,9-Jun-19,NA,NA,dynamic,audio-keyboard-response,27,sound/2star.wav,3261,NA,2,35,NA,NA,132207
I030,NA,NA,9-Jun-19,NA,NA,dynamic,html-button-response,108,NA,3261,2,NA,NA,NA,NA,274472
I030,NA,NA,9-Jun-19,NA,NA,dynamic,audio-keyboard-response,109,sound/6star.wav,3261,NA,6,184,NA,NA,275978
I030,NA,NA,9-Jun-19,NA,NA,dynamic,html-button-response,70,NA,3261,3,NA,NA,NA,NA,213229
I030,NA,NA,9-Jun-19,NA,NA,dynamic,audio-keyboard-response,71,sound/1star.wav,3261,NA,1,104,NA,NA,214734
I030,NA,NA,9-Jun-19,NA,NA,dynamic,html-button-response,72,NA,3261,0,NA,NA,NA,NA,216126
I030,NA,NA,9-Jun-19,NA,NA,dynamic,audio-keyboard-response,73,sound/3star.wav,3261,NA,3,107,NA,NA,217631
I030,NA,NA,9-Jun-19,NA,NA,dynamic,html-button-response,74,NA,3261,2,NA,NA,NA,NA,219688
I030,NA,NA,9-Jun-19,NA,NA,dynamic,audio-keyboard-response,75,sound/6star.wav,3261,NA,6,113,NA,NA,221194
I030,NA,NA,9-Jun-19,NA,NA,dynamic,html-button-response,76,NA,3261,1,NA,NA,NA,NA,222783
I030,NA,NA,9-Jun-19,NA,NA,dynamic,audio-keyboard-response,37,sound/2star.wav,3261,NA,2,48,NA,NA,147986
I030,NA,NA,9-Jun-19,NA,NA,dynamic,html-button-response,38,NA,3261,2,NA,NA,NA,NA,149596
I030,NA,NA,9-Jun-19,NA,NA,dynamic,audio-keyboard-response,39,sound/6star.wav,3261,NA,6,54,NA,NA,151100
I030,NA,NA,9-Jun-19,NA,NA,dynamic,html-button-response,40,NA,3261,3,NA,NA,NA,NA,153527
I030,NA,NA,9-Jun-19,NA,NA,dynamic,audio-keyboard-response,41,sound/1star.wav,3261,NA,1,55,NA,NA,155035
I030,NA,NA,9-Jun-19,NA,NA,dynamic,html-button-response,42,NA,3261,0,NA,NA,NA,NA,157104
I030,NA,NA,9-Jun-19,NA,NA,dynamic,audio-keyboard-response,43,sound/3star.wav,3261,NA,3,58,NA,NA,158609
I030,NA,NA,9-Jun-19,NA,NA,dynamic,html-button-response,44,NA,3261,1,NA,NA,NA,NA,160617
I030,NA,NA,9-Jun-19,NA,NA,dynamic,audio-keyboard-response,45,sound/2star.wav,3261,NA,2,60,NA,NA,162122
I030,NA,NA,9-Jun-19,NA,NA,dynamic,html-button-response,46,NA,3261,2,NA,NA,NA,NA,163880
I030,NA,NA,9-Jun-19,NA,NA,dynamic,audio-keyboard-response,47,sound/6star.wav,3261,NA,6,66,NA,NA,165383
I030,NA,NA,9-Jun-19,NA,NA,dynamic,html-button-response,48,NA,3261,0,NA,NA,NA,NA,166896
I030,NA,NA,9-Jun-19,NA,NA,dynamic,audio-keyboard-response,49,sound/3star.wav,3261,NA,3,69,NA,NA,168402
I030,NA,NA,9-Jun-19,NA,NA,dynamic,audio-keyboard-response,103,sound/8star.wav,3261,NA,8,173,NA,NA,266170
I030,NA,NA,9-Jun-19,NA,NA,dynamic,html-button-response,104,NA,3261,0,NA,NA,NA,NA,268150
I030,NA,NA,9-Jun-19,NA,NA,dynamic,audio-keyboard-response,105,sound/3star.wav,3261,NA,3,176,NA,NA,269657
I030,NA,NA,9-Jun-19,NA,NA,dynamic,html-button-response,106,NA,3261,1,NA,NA,NA,NA,271002
I030,NA,NA,9-Jun-19,NA,NA,dynamic,audio-keyboard-response,107,sound/2star.wav,3261,NA,2,178,NA,NA,272505
I030,NA,NA,9-Jun-19,NA,NA,dynamic,audio-keyboard-response,121,sound/3star.wav,3261,NA,3,208,NA,NA,302397
I030,NA,NA,9-Jun-19,NA,NA,dynamic,html-button-response,122,NA,3261,2,NA,NA,NA,NA,303495
I030,NA,NA,9-Jun-19,NA,NA,dynamic,html-button-response,110,NA,3261,1,NA,NA,NA,NA,287240
I030,NA,NA,9-Jun-19,NA,NA,dynamic,audio-keyboard-response,111,sound/2star.wav,3261,NA,2,186,NA,NA,288743
I030,NA,NA,9-Jun-19,NA,NA,dynamic,audio-keyboard-response,99,sound/2star.wav,3261,NA,2,159,NA,NA,260368
