"subjID","age","dob","gender","language","country","condition","trial_type","trial_index","stimulus","pointvals_firsthalf","button_pressed","earnedThis","earnedCumulative","posttest","responses","rt","time_elapsed"
"C107684","38","05/19/1980","female","English","United States of America","dynamic","html-button-response","0","<p>Hi! Welcome to the experiment. This study takes the form of a simple decision making task.<br> It is designed to help us learn how children make decisions, so it will look like a kid's game.<br> However, in order to understand how kids make choices, we need to compare what they do to adults<br> doing the same task. That's you! Because of this, we ask you to take the task seriously and do your<br>best, even if the task seems like a strange thing for an adult to do.</p>","1,3,2,6","0",,,,,"17453","17458"
"C107684","38","05/19/1980","female","English","United States of America","dynamic","animation","1",,"1,3,2,6",,,,,"[]",,"29463"
"C107684","38","05/19/1980","female","English","United States of America","dynamic","html-button-response","2","<img src='img/screen1d.png'></img>","1,3,2,6","0",,,,,"1136","30600"
"C107684","38","05/19/1980","female","English","United States of America","dynamic","animation","3",,"1,3,2,6",,,,,"[]",,"51401"
"C107684","38","05/19/1980","female","English","United States of America","dynamic","html-button-response","4","<img src='img/screen5e.jpg'></img>","1,3,2,6","0",,,,,"1210","52612"
"C107684","38","05/19/1980","female","English","United States of America","dynamic","survey-multi-choice","5",,"1,3,2,6",,,,,"\{""Q0"":"" You click on the monsters"",""Q1"":"" Because the main study will have children participating""\}","6809","59425"
"C107684","38","05/19/1980","female","English","United States of America","dynamic","html-button-response","6","Well done!","1,3,2,6","0",,,,,"899","60328"
"C107684","38","05/19/1980","female","English","United States of America","dynamic","html-button-response","7",,"1,3,2,6","1",,,,,"1112","61441"
"C107684","38","05/19/1980","female","English","United States of America","dynamic","audio-keyboard-response","8","sound/3star.wav","1,3,2,6",,"3","3",,,"null","62944"
"C107684","38","05/19/1980","female","English","United States of America","dynamic","html-button-response","9",,"1,3,2,6","3",,,,,"586","63532"
"C107684","38","05/19/1980","female","English","United States of America","dynamic","audio-keyboard-response","10","sound/6star.wav","1,3,2,6",,"6","9",,,"null","65035"
"C107684","38","05/19/1980","female","English","United States of America","dynamic","html-button-response","11",,"1,3,2,6","2",,,,,"441","65478"
"C107684","38","05/19/1980","female","English","United States of America","dynamic","audio-keyboard-response","12","sound/2star.wav","1,3,2,6",,"2","11",,,"null","66980"
"C107684","38","05/19/1980","female","English","United States of America","dynamic","html-button-response","13",,"1,3,2,6","0",,,,,"928","67911"
"C107684","38","05/19/1980","female","English","United States of America","dynamic","audio-keyboard-response","14","sound/1star.wav","1,3,2,6",,"1","12",,,"null","69416"
"C107684","38","05/19/1980","female","English","United States of America","dynamic","html-button-response","15",,"1,3,2,6","3",,,,,"549","69966"
"C107684","38","05/19/1980","female","English","United States of America","dynamic","audio-keyboard-response","16","sound/6star.wav","1,3,2,6",,"6","18",,,"null","71471"
"C107684","38","05/19/1980","female","English","United States of America","dynamic","html-button-response","17",,"1,3,2,6","1",,,,,"601","72074"
"C107684","38","05/19/1980","female","English","United States of America","dynamic","audio-keyboard-response","18","sound/3star.wav","1,3,2,6",,"3","21",,,"null","73577"
"C107684","38","05/19/1980","female","English","United States of America","dynamic","html-button-response","19",,"1,3,2,6","3",,,,,"425","74004"
"C107684","38","05/19/1980","female","English","United States of America","dynamic","audio-keyboard-response","20","sound/6star.wav","1,3,2,6",,"6","27",,,"null","75511"
"C107684","38","05/19/1980","female","English","United States of America","dynamic","html-button-response","21",,"1,3,2,6","0",,,,,"513","76028"
"C107684","38","05/19/1980","female","English","United States of America","dynamic","audio-keyboard-response","22","sound/1star.wav","1,3,2,6",,"1","28",,,"null","77532"
"C107684","38","05/19/1980","female","English","United States of America","dynamic","html-button-response","23",,"1,3,2,6","2",,,,,"327","77861"
"C107684","38","05/19/1980","female","English","United States of America","dynamic","audio-keyboard-response","24","sound/2star.wav","1,3,2,6",,"2","30",,,"null","79363"
"C107684","38","05/19/1980","female","English","United States of America","dynamic","html-button-response","25",,"1,3,2,6","3",,,,,"449","79814"
"C107684","38","05/19/1980","female","English","United States of America","dynamic","audio-keyboard-response","26","sound/6star.wav","1,3,2,6",,"6","36",,,"null","81318"
"C107684","38","05/19/1980","female","English","United States of America","dynamic","html-button-response","27",,"1,3,2,6","3",,,,,"330","81650"
"C107684","38","05/19/1980","female","English","United States of America","dynamic","audio-keyboard-response","28","sound/6star.wav","1,3,2,6",,"6","42",,,"null","83155"
"C107684","38","05/19/1980","female","English","United States of America","dynamic","html-button-response","29",,"1,3,2,6","3",,,,,"223","83380"
"C107684","38","05/19/1980","female","English","United States of America","dynamic","audio-keyboard-response","30","sound/6star.wav","1,3,2,6",,"6","48",,,"null","84884"
"C107684","38","05/19/1980","female","English","United States of America","dynamic","html-button-response","31",,"1,3,2,6","3",,,,,"240","85127"
"C107684","38","05/19/1980","female","English","United States of America","dynamic","audio-keyboard-response","32","sound/6star.wav","1,3,2,6",,"6","54",,,"null","86631"
"C107684","38","05/19/1980","female","English","United States of America","dynamic","html-button-response","33",,"1,3,2,6","3",,,,,"255","86888"
"C107684","38","05/19/1980","female","English","United States of America","dynamic","audio-keyboard-response","34","sound/6star.wav","1,3,2,6",,"6","60",,,"null","88393"
"C107684","38","05/19/1980","female","English","United States of America","dynamic","html-button-response","35",,"1,3,2,6","3",,,,,"725","89120"
"C107684","38","05/19/1980","female","English","United States of America","dynamic","audio-keyboard-response","36","sound/6star.wav","1,3,2,6",,"6","66",,,"null","90626"
"C107684","38","05/19/1980","female","English","United States of America","dynamic","html-button-response","37",,"1,3,2,6","3",,,,,"517","91144"
"C107684","38","05/19/1980","female","English","United States of America","dynamic","audio-keyboard-response","38","sound/6star.wav","1,3,2,6",,"6","72",,,"null","92647"
"C107684","38","05/19/1980","female","English","United States of America","dynamic","html-button-response","39",,"1,3,2,6","3",,,,,"674","93323"
"C107684","38","05/19/1980","female","English","United States of America","dynamic","audio-keyboard-response","40","sound/6star.wav","1,3,2,6",,"6","78",,,"null","94830"
"C107684","38","05/19/1980","female","English","United States of America","dynamic","html-button-response","41",,"1,3,2,6","3",,,,,"498","95331"
"C107684","38","05/19/1980","female","English","United States of America","dynamic","audio-keyboard-response","42","sound/6star.wav","1,3,2,6",,"6","84",,,"null","96836"
"C107684","38","05/19/1980","female","English","United States of America","dynamic","html-button-response","43",,"1,3,2,6","3",,,,,"385","97223"
"C107684","38","05/19/1980","female","English","United States of America","dynamic","audio-keyboard-response","44","sound/6star.wav","1,3,2,6",,"6","90",,,"null","98727"
"C107684","38","05/19/1980","female","English","United States of America","dynamic","html-button-response","45",,"1,3,2,6","3",,,,,"177","98906"
"C107684","38","05/19/1980","female","English","United States of America","dynamic","audio-keyboard-response","46","sound/6star.wav","1,3,2,6",,"6","96",,,"null","100413"
"C107684","38","05/19/1980","female","English","United States of America","dynamic","html-button-response","47",,"1,3,2,6","3",,,,,"443","100860"
"C107684","38","05/19/1980","female","English","United States of America","dynamic","audio-keyboard-response","48","sound/6star.wav","1,3,2,6",,"6","102",,,"null","102363"
"C107684","38","05/19/1980","female","English","United States of America","dynamic","html-button-response","49",,"1,3,2,6","3",,,,,"635","103001"
"C107684","38","05/19/1980","female","English","United States of America","dynamic","audio-keyboard-response","50","sound/6star.wav","1,3,2,6",,"6","108",,,"null","104505"
"C107684","38","05/19/1980","female","English","United States of America","dynamic","html-button-response","51",,"1,3,2,6","3",,,,,"485","104993"
"C107684","38","05/19/1980","female","English","United States of America","dynamic","audio-keyboard-response","52","sound/6star.wav","1,3,2,6",,"6","114",,,"null","106497"
"C107684","38","05/19/1980","female","English","United States of America","dynamic","html-button-response","53",,"1,3,2,6","3",,,,,"152","106652"
"C107684","38","05/19/1980","female","English","United States of America","dynamic","audio-keyboard-response","54","sound/6star.wav","1,3,2,6",,"6","120",,,"null","108157"
"C107684","38","05/19/1980","female","English","United States of America","dynamic","html-button-response","55",,"1,3,2,6","3",,,,,"356","108515"
"C107684","38","05/19/1980","female","English","United States of America","dynamic","audio-keyboard-response","56","sound/6star.wav","1,3,2,6",,"6","126",,,"null","110019"
"C107684","38","05/19/1980","female","English","United States of America","dynamic","html-button-response","57",,"1,3,2,6","3",,,,,"231","110253"
"C107684","38","05/19/1980","female","English","United States of America","dynamic","audio-keyboard-response","58","sound/6star.wav","1,3,2,6",,"6","132",,,"null","111757"
"C107684","38","05/19/1980","female","English","United States of America","dynamic","html-button-response","59",,"1,3,2,6","3",,,,,"345","112104"
"C107684","38","05/19/1980","female","English","United States of America","dynamic","audio-keyboard-response","60","sound/6star.wav","1,3,2,6",,"6","138",,,"null","113609"
"C107684","38","05/19/1980","female","English","United States of America","dynamic","html-button-response","61",,"1,3,2,6","3",,,,,"185","113796"
"C107684","38","05/19/1980","female","English","United States of America","dynamic","audio-keyboard-response","62","sound/6star.wav","1,3,2,6",,"6","144",,,"null","115300"
"C107684","38","05/19/1980","female","English","United States of America","dynamic","html-button-response","63",,"1,3,2,6","3",,,,,"386","115689"
"C107684","38","05/19/1980","female","English","United States of America","dynamic","audio-keyboard-response","64","sound/6star.wav","1,3,2,6",,"6","150",,,"null","117190"
"C107684","38","05/19/1980","female","English","United States of America","dynamic","html-button-response","65",,"1,3,2,6","3",,,,,"458","117650"
"C107684","38","05/19/1980","female","English","United States of America","dynamic","audio-keyboard-response","66","sound/6star.wav","1,3,2,6",,"6","156",,,"null","119154"
"C107684","38","05/19/1980","female","English","United States of America","dynamic","html-button-response","67",,"1,3,2,6","3",,,,,"378","119534"
"C107684","38","05/19/1980","female","English","United States of America","dynamic","audio-keyboard-response","68","sound/6star.wav","1,3,2,6",,"6","162",,,"null","121039"
"C107684","38","05/19/1980","female","English","United States of America","dynamic","html-button-response","69",,"1,3,2,6","3",,,,,"270","121310"
"C107684","38","05/19/1980","female","English","United States of America","dynamic","audio-keyboard-response","70","sound/6star.wav","1,3,2,6",,"6","168",,,"null","122814"
"C107684","38","05/19/1980","female","English","United States of America","dynamic","html-button-response","71",,"1,3,2,6","3",,,,,"219","123035"
"C107684","38","05/19/1980","female","English","United States of America","dynamic","audio-keyboard-response","72","sound/6star.wav","1,3,2,6",,"6","174",,,"null","124538"
"C107684","38","05/19/1980","female","English","United States of America","dynamic","html-button-response","73",,"1,3,2,6","3",,,,,"263","124802"
"C107684","38","05/19/1980","female","English","United States of America","dynamic","audio-keyboard-response","74","sound/6star.wav","1,3,2,6",,"6","180",,,"null","126306"
"C107684","38","05/19/1980","female","English","United States of America","dynamic","html-button-response","75",,"1,3,2,6","3",,,,,"233","126540"
"C107684","38","05/19/1980","female","English","United States of America","dynamic","audio-keyboard-response","76","sound/6star.wav","1,3,2,6",,"6","186",,,"null","128043"
"C107684","38","05/19/1980","female","English","United States of America","dynamic","html-button-response","77",,"1,3,2,6","3",,,,,"612","128657"
"C107684","38","05/19/1980","female","English","United States of America","dynamic","audio-keyboard-response","78","sound/6star.wav","1,3,2,6",,"6","192",,,"null","130165"
"C107684","38","05/19/1980","female","English","United States of America","dynamic","html-button-response","79",,"1,3,2,6","3",,,,,"936","131104"
"C107684","38","05/19/1980","female","English","United States of America","dynamic","audio-keyboard-response","80","sound/6star.wav","1,3,2,6",,"6","198",,,"null","132606"
"C107684","38","05/19/1980","female","English","United States of America","dynamic","html-button-response","81",,"1,3,2,6","3",,,,,"875","133483"
"C107684","38","05/19/1980","female","English","United States of America","dynamic","audio-keyboard-response","82","sound/6star.wav","1,3,2,6",,"6","204",,,"null","134988"
"C107684","38","05/19/1980","female","English","United States of America","dynamic","html-button-response","83",,"1,3,2,6","3",,,,,"685","135677"
"C107684","38","05/19/1980","female","English","United States of America","dynamic","audio-keyboard-response","84","sound/6star.wav","1,3,2,6",,"6","210",,,"null","137182"
"C107684","38","05/19/1980","female","English","United States of America","dynamic","html-button-response","85",,"1,3,2,6","3",,,,,"870","138054"
"C107684","38","05/19/1980","female","English","United States of America","dynamic","audio-keyboard-response","86","sound/6star.wav","1,3,2,6",,"6","216",,,"null","139558"
"C107684","38","05/19/1980","female","English","United States of America","dynamic","html-button-response","87",,"1,3,2,6","3",,,,,"295","139855"
"C107684","38","05/19/1980","female","English","United States of America","dynamic","audio-keyboard-response","88","sound/6star.wav","1,3,2,6",,"6","222",,,"null","141359"
"C107684","38","05/19/1980","female","English","United States of America","dynamic","html-button-response","89",,"1,3,2,6","3",,,,,"641","142002"
"C107684","38","05/19/1980","female","English","United States of America","dynamic","audio-keyboard-response","90","sound/6star.wav","1,3,2,6",,"6","228",,,"null","143505"
"C107684","38","05/19/1980","female","English","United States of America","dynamic","html-button-response","91",,"1,3,2,6","3",,,,,"565","144072"
"C107684","38","05/19/1980","female","English","United States of America","dynamic","audio-keyboard-response","92","sound/6star.wav","1,3,2,6",,"6","234",,,"null","145577"
"C107684","38","05/19/1980","female","English","United States of America","dynamic","html-button-response","93",,"1,3,2,6","3",,,,,"523","146102"
"C107684","38","05/19/1980","female","English","United States of America","dynamic","audio-keyboard-response","94","sound/6star.wav","1,3,2,6",,"6","240",,,"null","147604"
"C107684","38","05/19/1980","female","English","United States of America","dynamic","html-button-response","95",,"1,3,2,6","3",,,,,"459","148064"
"C107684","38","05/19/1980","female","English","United States of America","dynamic","audio-keyboard-response","96","sound/6star.wav","1,3,2,6",,"6","246",,,"null","149569"
"C107684","38","05/19/1980","female","English","United States of America","dynamic","html-button-response","97",,"1,3,2,6","3",,,,,"673","150243"
"C107684","38","05/19/1980","female","English","United States of America","dynamic","audio-keyboard-response","98","sound/6star.wav","1,3,2,6",,"6","252",,,"null","151747"
"C107684","38","05/19/1980","female","English","United States of America","dynamic","html-button-response","99",,"1,3,2,6","3",,,,,"531","152280"
"C107684","38","05/19/1980","female","English","United States of America","dynamic","audio-keyboard-response","100","sound/6star.wav","1,3,2,6",,"6","258",,,"null","153786"
"C107684","38","05/19/1980","female","English","United States of America","dynamic","html-button-response","101",,"1,3,2,6","3",,,,,"611","154398"
"C107684","38","05/19/1980","female","English","United States of America","dynamic","audio-keyboard-response","102","sound/6star.wav","1,3,2,6",,"6","264",,,"null","155906"
"C107684","38","05/19/1980","female","English","United States of America","dynamic","html-button-response","103",,"1,3,2,6","3",,,,,"304","156212"
"C107684","38","05/19/1980","female","English","United States of America","dynamic","audio-keyboard-response","104","sound/6star.wav","1,3,2,6",,"6","270",,,"null","157716"
"C107684","38","05/19/1980","female","English","United States of America","dynamic","html-button-response","105",,"1,3,2,6","3",,,,,"457","158174"
"C107684","38","05/19/1980","female","English","United States of America","dynamic","audio-keyboard-response","106","sound/6star.wav","1,3,2,6",,"6","276",,,"null","159678"
"C107684","38","05/19/1980","female","English","United States of America","dynamic","html-button-response","107",,"1,3,2,6","3",,,,,"424","160104"
"C107684","38","05/19/1980","female","English","United States of America","dynamic","audio-keyboard-response","108","sound/6star.wav","1,3,2,6",,"6","282",,,"null","161608"
"C107684","38","05/19/1980","female","English","United States of America","dynamic","html-button-response","109",,"1,3,2,6","3",,,,,"471","162082"
"C107684","38","05/19/1980","female","English","United States of America","dynamic","audio-keyboard-response","110","sound/6star.wav","1,3,2,6",,"6","288",,,"null","163588"
"C107684","38","05/19/1980","female","English","United States of America","dynamic","html-button-response","111",,"1,3,2,6","3",,,,,"243","163834"
"C107684","38","05/19/1980","female","English","United States of America","dynamic","audio-keyboard-response","112","sound/6star.wav","1,3,2,6",,"6","294",,,"null","165339"
"C107684","38","05/19/1980","female","English","United States of America","dynamic","html-button-response","113",,"1,3,2,6","3",,,,,"791","166136"
"C107684","38","05/19/1980","female","English","United States of America","dynamic","audio-keyboard-response","114","sound/6star.wav","1,3,2,6",,"6","300",,,"null","167639"
"C107684","38","05/19/1980","female","English","United States of America","dynamic","html-button-response","115",,"1,3,2,6","3",,,,,"765","168406"
"C107684","38","05/19/1980","female","English","United States of America","dynamic","audio-keyboard-response","116","sound/6star.wav","1,3,2,6",,"6","306",,,"null","169913"
"C107684","38","05/19/1980","female","English","United States of America","dynamic","html-button-response","117",,"1,3,2,6","3",,,,,"867","170784"
"C107684","38","05/19/1980","female","English","United States of America","dynamic","audio-keyboard-response","118","sound/6star.wav","1,3,2,6",,"6","312",,,"null","172287"
"C107684","38","05/19/1980","female","English","United States of America","dynamic","html-button-response","119",,"1,3,2,6","3",,,,,"273","172562"
"C107684","38","05/19/1980","female","English","United States of America","dynamic","audio-keyboard-response","120","sound/6star.wav","1,3,2,6",,"6","318",,,"null","174067"
"C107684","38","05/19/1980","female","English","United States of America","dynamic","html-button-response","121",,"1,3,2,6","3",,,,,"452","174523"
"C107684","38","05/19/1980","female","English","United States of America","dynamic","audio-keyboard-response","122","sound/6star.wav","1,3,2,6",,"6","324",,,"null","176027"
"C107684","38","05/19/1980","female","English","United States of America","dynamic","html-button-response","123",,"1,3,2,6","3",,,,,"618","176646"
"C107684","38","05/19/1980","female","English","United States of America","dynamic","audio-keyboard-response","124","sound/6star.wav","1,3,2,6",,"6","330",,,"null","178152"
"C107684","38","05/19/1980","female","English","United States of America","dynamic","html-button-response","125",,"1,3,2,6","3",,,,,"1404","179558"
"C107684","38","05/19/1980","female","English","United States of America","dynamic","audio-keyboard-response","126","sound/6star.wav","1,3,2,6",,"6","336",,,"null","181063"
"C107684","38","05/19/1980","female","English","United States of America","dynamic","html-button-response","127",,"1,3,2,6","3",,,,,"627","181691"
"C107684","38","05/19/1980","female","English","United States of America","dynamic","audio-keyboard-response","128","sound/6star.wav","1,3,2,6",,"6","342",,,"null","183195"
"C107684","38","05/19/1980","female","English","United States of America","dynamic","html-button-response","129",,"1,3,2,6","3",,,,,"618","183814"
"C107684","38","05/19/1980","female","English","United States of America","dynamic","audio-keyboard-response","130","sound/6star.wav","1,3,2,6",,"6","348",,,"null","185317"
"C107684","38","05/19/1980","female","English","United States of America","dynamic","html-button-response","131",,"1,3,2,6","3",,,,,"726","186046"
"C107684","38","05/19/1980","female","English","United States of America","dynamic","audio-keyboard-response","132","sound/6star.wav","1,3,2,6",,"6","354",,,"null","187550"
"C107684","38","05/19/1980","female","English","United States of America","dynamic","html-button-response","133",,"1,3,2,6","3",,,,,"619","188170"
"C107684","38","05/19/1980","female","English","United States of America","dynamic","audio-keyboard-response","134","sound/6star.wav","1,3,2,6",,"6","360",,,"null","189675"
"C107684","38","05/19/1980","female","English","United States of America","dynamic","html-button-response","135",,"1,3,2,6","3",,,,,"423","190102"
"C107684","38","05/19/1980","female","English","United States of America","dynamic","audio-keyboard-response","136","sound/6star.wav","1,3,2,6",,"6","366",,,"null","191607"
"C107684","38","05/19/1980","female","English","United States of America","dynamic","html-button-response","137",,"1,3,2,6","3",,,,,"406","192014"
"C107684","38","05/19/1980","female","English","United States of America","dynamic","audio-keyboard-response","138","sound/6star.wav","1,3,2,6",,"6","372",,,"null","193518"
"C107684","38","05/19/1980","female","English","United States of America","dynamic","html-button-response","139",,"1,3,2,6","3",,,,,"821","194341"
"C107684","38","05/19/1980","female","English","United States of America","dynamic","audio-keyboard-response","140","sound/6star.wav","1,3,2,6",,"6","378",,,"null","195845"
"C107684","38","05/19/1980","female","English","United States of America","dynamic","html-button-response","141",,"1,3,2,6","3",,,,,"926","196773"
"C107684","38","05/19/1980","female","English","United States of America","dynamic","audio-keyboard-response","142","sound/6star.wav","1,3,2,6",,"6","384",,,"null","198274"
"C107684","38","05/19/1980","female","English","United States of America","dynamic","html-button-response","143",,"1,3,2,6","3",,,,,"882","199159"
"C107684","38","05/19/1980","female","English","United States of America","dynamic","audio-keyboard-response","144","sound/6star.wav","1,3,2,6",,"6","390",,,"null","200663"
"C107684","38","05/19/1980","female","English","United States of America","dynamic","html-button-response","145",,"1,3,2,6","3",,,,,"662","201327"
"C107684","38","05/19/1980","female","English","United States of America","dynamic","audio-keyboard-response","146","sound/6star.wav","1,3,2,6",,"6","396",,,"null","202830"
"C107684","38","05/19/1980","female","English","United States of America","dynamic","html-button-response","147",,"1,3,2,6","3",,,,,"536","203368"
"C107684","38","05/19/1980","female","English","United States of America","dynamic","audio-keyboard-response","148","sound/6star.wav","1,3,2,6",,"6","402",,,"null","204873"
"C107684","38","05/19/1980","female","English","United States of America","dynamic","html-button-response","149",,"1,3,2,6","3",,,,,"471","205346"
"C107684","38","05/19/1980","female","English","United States of America","dynamic","audio-keyboard-response","150","sound/6star.wav","1,3,2,6",,"6","408",,,"null","206850"
"C107684","38","05/19/1980","female","English","United States of America","dynamic","html-button-response","151",,"1,3,2,6","3",,,,,"360","207213"
"C107684","38","05/19/1980","female","English","United States of America","dynamic","audio-keyboard-response","152","sound/6star.wav","1,3,2,6",,"6","414",,,"null","208717"
"C107684","38","05/19/1980","female","English","United States of America","dynamic","html-button-response","153",,"1,3,2,6","3",,,,,"365","209084"
"C107684","38","05/19/1980","female","English","United States of America","dynamic","audio-keyboard-response","154","sound/6star.wav","1,3,2,6",,"6","420",,,"null","210588"
"C107684","38","05/19/1980","female","English","United States of America","dynamic","html-button-response","155",,"1,3,2,6","3",,,,,"565","211153"
"C107684","38","05/19/1980","female","English","United States of America","dynamic","audio-keyboard-response","156","sound/6star.wav","1,3,2,6",,"6","426",,,"null","212657"
"C107684","38","05/19/1980","female","English","United States of America","dynamic","html-button-response","157",,"1,3,2,6","3",,,,,"278","212938"
"C107684","38","05/19/1980","female","English","United States of America","dynamic","audio-keyboard-response","158","sound/6star.wav","1,3,2,6",,"6","432",,,"null","214444"
"C107684","38","05/19/1980","female","English","United States of America","dynamic","html-button-response","159",,"1,3,2,6","3",,,,,"329","214775"
"C107684","38","05/19/1980","female","English","United States of America","dynamic","audio-keyboard-response","160","sound/6star.wav","1,3,2,6",,"6","438",,,"null","216278"
"C107684","38","05/19/1980","female","English","United States of America","dynamic","html-button-response","161",,"1,3,2,6","3",,,,,"466","216745"
"C107684","38","05/19/1980","female","English","United States of America","dynamic","audio-keyboard-response","162","sound/6star.wav","1,3,2,6",,"6","444",,,"null","218247"
"C107684","38","05/19/1980","female","English","United States of America","dynamic","html-button-response","163",,"1,3,2,6","3",,,,,"318","218568"
"C107684","38","05/19/1980","female","English","United States of America","dynamic","audio-keyboard-response","164","sound/6star.wav","1,3,2,6",,"6","450",,,"null","220071"
"C107684","38","05/19/1980","female","English","United States of America","dynamic","html-button-response","165",,"1,3,2,6","3",,,,,"247","220323"
"C107684","38","05/19/1980","female","English","United States of America","dynamic","audio-keyboard-response","166","sound/6star.wav","1,3,2,6",,"6","456",,,"null","221828"
"C107684","38","05/19/1980","female","English","United States of America","dynamic","audio-button-response","167","sound/celebration.wav","1,3,2,6","0",,,,,"3448","225280"
"C107684","38","05/19/1980","female","English","United States of America","dynamic","html-button-response","168","Which, if any, of these monsters ever gave you <b>1 star</b>?</p>","1,3,2,6","0",,,"correct",,"5914","231196"
"C107684","38","05/19/1980","female","English","United States of America","dynamic","html-button-response","169","Which, if any, of these monsters ever gave you <b>2 stars</b>?</p>","1,3,2,6","2",,,"correct",,"657","232656"
"C107684","38","05/19/1980","female","English","United States of America","dynamic","html-button-response","170","Which, if any, of these monsters ever gave you <b>3 stars</b>?</p>","1,3,2,6","1",,,"correct",,"493","233953"
"C107684","38","05/19/1980","female","English","United States of America","dynamic","html-button-response","171","Which, if any, of these monsters ever gave you <b>6 stars</b>?</p>","1,3,2,6","3",,,"correct",,"472","235428"
"C107684","38","05/19/1980","female","English","United States of America","dynamic","html-button-response","172","Which, if any, of these monsters ever gave you <b>8 stars</b>?</p>","1,3,2,6","4",,,"incorrect",,"1899","238130"
"C107684","38","05/19/1980","female","English","United States of America","dynamic","html-button-response","173","Which monster did you like the most?</p>","1,3,2,6","3",,,,,"1283","240216"
"C107684","38","05/19/1980","female","English","United States of America","dynamic","survey-text","174",,"1,3,2,6",,,,,"\{""Q0"":""it gave me the most stars""\}","6973","247992"
"C145658","36","11/3/82","m","English","United States of America","static","html-button-response","0","<p>Hi! Welcome to the experiment. This study takes the form of a simple decision making task.<br> It is designed to help us learn how children make decisions, so it will look like a kid's game.<br> However, in order to understand how kids make choices, we need to compare what they do to adults<br> doing the same task. That's you! Because of this, we ask you to take the task seriously and do your<br>best, even if the task seems like a strange thing for an adult to do.</p>","6,3,1,2","0",,,,,"11773","11776"
"C145658","36","11/3/82","m","English","United States of America","static","animation","1",,"6,3,1,2",,,,,"[]",,"23777"
"C145658","36","11/3/82","m","English","United States of America","static","html-button-response","2","<img src='img/screen1d.png'></img>","6,3,1,2","0",,,,,"2885","26664"
"C145658","36","11/3/82","m","English","United States of America","static","animation","3",,"6,3,1,2",,,,,"[]",,"47465"
"C145658","36","11/3/82","m","English","United States of America","static","html-button-response","4","<img src='img/screen5e.jpg'></img>","6,3,1,2","0",,,,,"1536","49001"
"C145658","36","11/3/82","m","English","United States of America","static","survey-multi-choice","5",,"6,3,1,2",,,,,"\{""Q0"":"" You click on the monsters"",""Q1"":"" Because the main study will have children participating""\}","9449","58461"
"C145658","36","11/3/82","m","English","United States of America","static","html-button-response","6","Well done!","6,3,1,2","0",,,,,"1492","59954"
"C145658","36","11/3/82","m","English","United States of America","static","html-button-response","7",,"6,3,1,2","0",,,,,"11838","71794"
"C145658","36","11/3/82","m","English","United States of America","static","audio-keyboard-response","8","sound/6star.wav","6,3,1,2",,"6","6",,,"null","73298"
"C145658","36","11/3/82","m","English","United States of America","static","html-button-response","9",,"6,3,1,2","1",,,,,"10089","83388"
"C145658","36","11/3/82","m","English","United States of America","static","audio-keyboard-response","10","sound/3star.wav","6,3,1,2",,"3","9",,,"null","84889"
"C145658","36","11/3/82","m","English","United States of America","static","html-button-response","11",,"6,3,1,2","2",,,,,"11792","96682"
"C145658","36","11/3/82","m","English","United States of America","static","audio-keyboard-response","12","sound/1star.wav","6,3,1,2",,"1","10",,,"null","98183"
"C145658","36","11/3/82","m","English","United States of America","static","html-button-response","13",,"6,3,1,2","3",,,,,"12865","111050"
"C145658","36","11/3/82","m","English","United States of America","static","audio-keyboard-response","14","sound/2star.wav","6,3,1,2",,"2","12",,,"null","112550"
"C145658","36","11/3/82","m","English","United States of America","static","html-button-response","15",,"6,3,1,2","0",,,,,"24131","136683"
"C145658","36","11/3/82","m","English","United States of America","static","audio-keyboard-response","16","sound/6star.wav","6,3,1,2",,"6","18",,,"null","138184"
"C145658","36","11/3/82","m","English","United States of America","static","html-button-response","17",,"6,3,1,2","0",,,,,"1902","140087"
"C145658","36","11/3/82","m","English","United States of America","static","audio-keyboard-response","18","sound/6star.wav","6,3,1,2",,"6","24",,,"null","141587"
"C145658","36","11/3/82","m","English","United States of America","static","html-button-response","19",,"6,3,1,2","0",,,,,"491","142079"
"C145658","36","11/3/82","m","English","United States of America","static","audio-keyboard-response","20","sound/6star.wav","6,3,1,2",,"6","30",,,"null","143581"
"C145658","36","11/3/82","m","English","United States of America","static","html-button-response","21",,"6,3,1,2","0",,,,,"470","144053"
"C145658","36","11/3/82","m","English","United States of America","static","audio-keyboard-response","22","sound/6star.wav","6,3,1,2",,"6","36",,,"null","145554"
"C145658","36","11/3/82","m","English","United States of America","static","html-button-response","23",,"6,3,1,2","0",,,,,"380","145936"
"C145658","36","11/3/82","m","English","United States of America","static","audio-keyboard-response","24","sound/6star.wav","6,3,1,2",,"6","42",,,"null","147452"
"C145658","36","11/3/82","m","English","United States of America","static","html-button-response","25",,"6,3,1,2","0",,,,,"441","147895"
"C145658","36","11/3/82","m","English","United States of America","static","audio-keyboard-response","26","sound/6star.wav","6,3,1,2",,"6","48",,,"null","149397"
"C145658","36","11/3/82","m","English","United States of America","static","html-button-response","27",,"6,3,1,2","0",,,,,"431","149830"
"C145658","36","11/3/82","m","English","United States of America","static","audio-keyboard-response","28","sound/6star.wav","6,3,1,2",,"6","54",,,"null","151330"
"C145658","36","11/3/82","m","English","United States of America","static","html-button-response","29",,"6,3,1,2","0",,,,,"387","151719"
"C145658","36","11/3/82","m","English","United States of America","static","audio-keyboard-response","30","sound/6star.wav","6,3,1,2",,"6","60",,,"null","153219"
"C145658","36","11/3/82","m","English","United States of America","static","html-button-response","31",,"6,3,1,2","0",,,,,"427","153647"
"C145658","36","11/3/82","m","English","United States of America","static","audio-keyboard-response","32","sound/6star.wav","6,3,1,2",,"6","66",,,"null","155149"
"C145658","36","11/3/82","m","English","United States of America","static","html-button-response","33",,"6,3,1,2","0",,,,,"581","155731"
"C145658","36","11/3/82","m","English","United States of America","static","audio-keyboard-response","34","sound/6star.wav","6,3,1,2",,"6","72",,,"null","157231"
"C145658","36","11/3/82","m","English","United States of America","static","html-button-response","35",,"6,3,1,2","0",,,,,"599","157831"
"C145658","36","11/3/82","m","English","United States of America","static","audio-keyboard-response","36","sound/6star.wav","6,3,1,2",,"6","78",,,"null","159332"
"C145658","36","11/3/82","m","English","United States of America","static","html-button-response","37",,"6,3,1,2","0",,,,,"340","159673"
"C145658","36","11/3/82","m","English","United States of America","static","audio-keyboard-response","38","sound/6star.wav","6,3,1,2",,"6","84",,,"null","161175"
"C145658","36","11/3/82","m","English","United States of America","static","html-button-response","39",,"6,3,1,2","0",,,,,"589","161765"
"C145658","36","11/3/82","m","English","United States of America","static","audio-keyboard-response","40","sound/6star.wav","6,3,1,2",,"6","90",,,"null","163267"
"C145658","36","11/3/82","m","English","United States of America","static","html-button-response","41",,"6,3,1,2","1",,,,,"891","164160"
"C145658","36","11/3/82","m","English","United States of America","static","audio-keyboard-response","42","sound/3star.wav","6,3,1,2",,"3","93",,,"null","165661"
"C145658","36","11/3/82","m","English","United States of America","static","html-button-response","43",,"6,3,1,2","0",,,,,"1621","167283"
"C145658","36","11/3/82","m","English","United States of America","static","audio-keyboard-response","44","sound/6star.wav","6,3,1,2",,"6","99",,,"null","168783"
"C145658","36","11/3/82","m","English","United States of America","static","html-button-response","45",,"6,3,1,2","0",,,,,"233","169018"
"C145658","36","11/3/82","m","English","United States of America","static","audio-keyboard-response","46","sound/6star.wav","6,3,1,2",,"6","105",,,"null","170519"
"C145658","36","11/3/82","m","English","United States of America","static","html-button-response","47",,"6,3,1,2","0",,,,,"215","170735"
"C145658","36","11/3/82","m","English","United States of America","static","audio-keyboard-response","48","sound/6star.wav","6,3,1,2",,"6","111",,,"null","172236"
"C145658","36","11/3/82","m","English","United States of America","static","html-button-response","49",,"6,3,1,2","0",,,,,"178","172415"
"C145658","36","11/3/82","m","English","United States of America","static","audio-keyboard-response","50","sound/6star.wav","6,3,1,2",,"6","117",,,"null","173916"
"C145658","36","11/3/82","m","English","United States of America","static","html-button-response","51",,"6,3,1,2","0",,,,,"589","174507"
"C145658","36","11/3/82","m","English","United States of America","static","audio-keyboard-response","52","sound/6star.wav","6,3,1,2",,"6","123",,,"null","176010"
"C145658","36","11/3/82","m","English","United States of America","static","html-button-response","53",,"6,3,1,2","0",,,,,"408","176419"
"C145658","36","11/3/82","m","English","United States of America","static","audio-keyboard-response","54","sound/6star.wav","6,3,1,2",,"6","129",,,"null","177920"
"C145658","36","11/3/82","m","English","United States of America","static","html-button-response","55",,"6,3,1,2","0",,,,,"1156","179078"
"C145658","36","11/3/82","m","English","United States of America","static","audio-keyboard-response","56","sound/6star.wav","6,3,1,2",,"6","135",,,"null","180578"
"C145658","36","11/3/82","m","English","United States of America","static","html-button-response","57",,"6,3,1,2","0",,,,,"1026","181606"
"C145658","36","11/3/82","m","English","United States of America","static","audio-keyboard-response","58","sound/6star.wav","6,3,1,2",,"6","141",,,"null","183106"
"C145658","36","11/3/82","m","English","United States of America","static","html-button-response","59",,"6,3,1,2","0",,,,,"496","183603"
"C145658","36","11/3/82","m","English","United States of America","static","audio-keyboard-response","60","sound/6star.wav","6,3,1,2",,"6","147",,,"null","185104"
"C145658","36","11/3/82","m","English","United States of America","static","html-button-response","61",,"6,3,1,2","0",,,,,"550","185655"
"C145658","36","11/3/82","m","English","United States of America","static","audio-keyboard-response","62","sound/6star.wav","6,3,1,2",,"6","153",,,"null","187158"
"C145658","36","11/3/82","m","English","United States of America","static","html-button-response","63",,"6,3,1,2","0",,,,,"424","187585"
"C145658","36","11/3/82","m","English","United States of America","static","audio-keyboard-response","64","sound/6star.wav","6,3,1,2",,"6","159",,,"null","189086"
"C145658","36","11/3/82","m","English","United States of America","static","html-button-response","65",,"6,3,1,2","0",,,,,"230","189317"
"C145658","36","11/3/82","m","English","United States of America","static","audio-keyboard-response","66","sound/6star.wav","6,3,1,2",,"6","165",,,"null","190817"
"C145658","36","11/3/82","m","English","United States of America","static","html-button-response","67",,"6,3,1,2","0",,,,,"303","191121"
"C145658","36","11/3/82","m","English","United States of America","static","audio-keyboard-response","68","sound/6star.wav","6,3,1,2",,"6","171",,,"null","192622"
"C145658","36","11/3/82","m","English","United States of America","static","html-button-response","69",,"6,3,1,2","0",,,,,"306","192932"
"C145658","36","11/3/82","m","English","United States of America","static","audio-keyboard-response","70","sound/6star.wav","6,3,1,2",,"6","177",,,"null","194432"
"C145658","36","11/3/82","m","English","United States of America","static","html-button-response","71",,"6,3,1,2","0",,,,,"194","194628"
"C145658","36","11/3/82","m","English","United States of America","static","audio-keyboard-response","72","sound/6star.wav","6,3,1,2",,"6","183",,,"null","196132"
"C145658","36","11/3/82","m","English","United States of America","static","html-button-response","73",,"6,3,1,2","0",,,,,"740","196873"
"C145658","36","11/3/82","m","English","United States of America","static","audio-keyboard-response","74","sound/6star.wav","6,3,1,2",,"6","189",,,"null","198374"
"C145658","36","11/3/82","m","English","United States of America","static","html-button-response","75",,"6,3,1,2","0",,,,,"294","198670"
"C145658","36","11/3/82","m","English","United States of America","static","audio-keyboard-response","76","sound/6star.wav","6,3,1,2",,"6","195",,,"null","200171"
"C145658","36","11/3/82","m","English","United States of America","static","html-button-response","77",,"6,3,1,2","0",,,,,"209","200381"
"C145658","36","11/3/82","m","English","United States of America","static","audio-keyboard-response","78","sound/6star.wav","6,3,1,2",,"6","201",,,"null","201884"
"C145658","36","11/3/82","m","English","United States of America","static","html-button-response","79",,"6,3,1,2","0",,,,,"251","202139"
"C145658","36","11/3/82","m","English","United States of America","static","audio-keyboard-response","80","sound/6star.wav","6,3,1,2",,"6","207",,,"null","203641"
"C145658","36","11/3/82","m","English","United States of America","static","html-button-response","81",,"6,3,1,2","0",,,,,"183","203825"
"C145658","36","11/3/82","m","English","United States of America","static","audio-keyboard-response","82","sound/6star.wav","6,3,1,2",,"6","213",,,"null","205325"
"C145658","36","11/3/82","m","English","United States of America","static","html-button-response","83",,"6,3,1,2","0",,,,,"217","205543"
"C145658","36","11/3/82","m","English","United States of America","static","audio-keyboard-response","84","sound/6star.wav","6,3,1,2",,"6","219",,,"null","207045"
"C145658","36","11/3/82","m","English","United States of America","static","html-button-response","85",,"6,3,1,2","0",,,,,"455","207501"
"C145658","36","11/3/82","m","English","United States of America","static","audio-keyboard-response","86","sound/6star.wav","6,3,1,2",,"6","225",,,"null","209003"
"C145658","36","11/3/82","m","English","United States of America","static","html-button-response","87",,"6,3,1,2","0",,,,,"215","209219"
"C145658","36","11/3/82","m","English","United States of America","static","audio-keyboard-response","88","sound/6star.wav","6,3,1,2",,"6","231",,,"null","210722"
"C145658","36","11/3/82","m","English","United States of America","static","html-button-response","89",,"6,3,1,2","0",,,,,"214","210937"
"C145658","36","11/3/82","m","English","United States of America","static","audio-keyboard-response","90","sound/6star.wav","6,3,1,2",,"6","237",,,"null","212438"
"C145658","36","11/3/82","m","English","United States of America","static","html-button-response","91",,"6,3,1,2","0",,,,,"334","212773"
"C145658","36","11/3/82","m","English","United States of America","static","audio-keyboard-response","92","sound/6star.wav","6,3,1,2",,"6","243",,,"null","214274"
"C145658","36","11/3/82","m","English","United States of America","static","html-button-response","93",,"6,3,1,2","0",,,,,"246","214521"
"C145658","36","11/3/82","m","English","United States of America","static","audio-keyboard-response","94","sound/6star.wav","6,3,1,2",,"6","249",,,"null","216022"
"C145658","36","11/3/82","m","English","United States of America","static","html-button-response","95",,"6,3,1,2","0",,,,,"372","216395"
"C145658","36","11/3/82","m","English","United States of America","static","audio-keyboard-response","96","sound/6star.wav","6,3,1,2",,"6","255",,,"null","217895"
"C145658","36","11/3/82","m","English","United States of America","static","html-button-response","97",,"6,3,1,2","0",,,,,"209","218106"
"C145658","36","11/3/82","m","English","United States of America","static","audio-keyboard-response","98","sound/6star.wav","6,3,1,2",,"6","261",,,"null","219607"
"C145658","36","11/3/82","m","English","United States of America","static","html-button-response","99",,"6,3,1,2","0",,,,,"441","220049"
"C145658","36","11/3/82","m","English","United States of America","static","audio-keyboard-response","100","sound/6star.wav","6,3,1,2",,"6","267",,,"null","221551"
"C145658","36","11/3/82","m","English","United States of America","static","html-button-response","101",,"6,3,1,2","0",,,,,"201","221753"
"C145658","36","11/3/82","m","English","United States of America","static","audio-keyboard-response","102","sound/6star.wav","6,3,1,2",,"6","273",,,"null","223256"
"C145658","36","11/3/82","m","English","United States of America","static","html-button-response","103",,"6,3,1,2","0",,,,,"330","223588"
"C145658","36","11/3/82","m","English","United States of America","static","audio-keyboard-response","104","sound/6star.wav","6,3,1,2",,"6","279",,,"null","225089"
"C145658","36","11/3/82","m","English","United States of America","static","html-button-response","105",,"6,3,1,2","0",,,,,"207","225297"
"C145658","36","11/3/82","m","English","United States of America","static","audio-keyboard-response","106","sound/6star.wav","6,3,1,2",,"6","285",,,"null","226798"
"C145658","36","11/3/82","m","English","United States of America","static","html-button-response","107",,"6,3,1,2","0",,,,,"310","227109"
"C145658","36","11/3/82","m","English","United States of America","static","audio-keyboard-response","108","sound/6star.wav","6,3,1,2",,"6","291",,,"null","228609"
"C145658","36","11/3/82","m","English","United States of America","static","html-button-response","109",,"6,3,1,2","0",,,,,"201","228812"
"C145658","36","11/3/82","m","English","United States of America","static","audio-keyboard-response","110","sound/6star.wav","6,3,1,2",,"6","297",,,"null","230312"
"C145658","36","11/3/82","m","English","United States of America","static","html-button-response","111",,"6,3,1,2","0",,,,,"426","230739"
"C145658","36","11/3/82","m","English","United States of America","static","audio-keyboard-response","112","sound/6star.wav","6,3,1,2",,"6","303",,,"null","232239"
"C145658","36","11/3/82","m","English","United States of America","static","html-button-response","113",,"6,3,1,2","0",,,,,"436","232675"
"C145658","36","11/3/82","m","English","United States of America","static","audio-keyboard-response","114","sound/6star.wav","6,3,1,2",,"6","309",,,"null","234176"
"C145658","36","11/3/82","m","English","United States of America","static","html-button-response","115",,"6,3,1,2","0",,,,,"162","234340"
"C145658","36","11/3/82","m","English","United States of America","static","audio-keyboard-response","116","sound/6star.wav","6,3,1,2",,"6","315",,,"null","235840"
"C145658","36","11/3/82","m","English","United States of America","static","html-button-response","117",,"6,3,1,2","0",,,,,"278","236119"
"C145658","36","11/3/82","m","English","United States of America","static","audio-keyboard-response","118","sound/6star.wav","6,3,1,2",,"6","321",,,"null","237620"
"C145658","36","11/3/82","m","English","United States of America","static","html-button-response","119",,"6,3,1,2","0",,,,,"480","238101"
"C145658","36","11/3/82","m","English","United States of America","static","audio-keyboard-response","120","sound/6star.wav","6,3,1,2",,"6","327",,,"null","239602"
"C145658","36","11/3/82","m","English","United States of America","static","html-button-response","121",,"6,3,1,2","0",,,,,"153","239757"
"C145658","36","11/3/82","m","English","United States of America","static","audio-keyboard-response","122","sound/6star.wav","6,3,1,2",,"6","333",,,"null","241259"
"C145658","36","11/3/82","m","English","United States of America","static","html-button-response","123",,"6,3,1,2","0",,,,,"238","241499"
"C145658","36","11/3/82","m","English","United States of America","static","audio-keyboard-response","124","sound/6star.wav","6,3,1,2",,"6","339",,,"null","243001"
"C145658","36","11/3/82","m","English","United States of America","static","html-button-response","125",,"6,3,1,2","0",,,,,"277","243280"
"C145658","36","11/3/82","m","English","United States of America","static","audio-keyboard-response","126","sound/6star.wav","6,3,1,2",,"6","345",,,"null","244782"
"C145658","36","11/3/82","m","English","United States of America","static","html-button-response","127",,"6,3,1,2","0",,,,,"268","245051"
"C145658","36","11/3/82","m","English","United States of America","static","audio-keyboard-response","128","sound/6star.wav","6,3,1,2",,"6","351",,,"null","246552"
"C145658","36","11/3/82","m","English","United States of America","static","html-button-response","129",,"6,3,1,2","0",,,,,"201","246755"
"C145658","36","11/3/82","m","English","United States of America","static","audio-keyboard-response","130","sound/6star.wav","6,3,1,2",,"6","357",,,"null","248257"
"C145658","36","11/3/82","m","English","United States of America","static","html-button-response","131",,"6,3,1,2","0",,,,,"253","248512"
"C145658","36","11/3/82","m","English","United States of America","static","audio-keyboard-response","132","sound/6star.wav","6,3,1,2",,"6","363",,,"null","250012"
"C145658","36","11/3/82","m","English","United States of America","static","html-button-response","133",,"6,3,1,2","0",,,,,"372","250386"
"C145658","36","11/3/82","m","English","United States of America","static","audio-keyboard-response","134","sound/6star.wav","6,3,1,2",,"6","369",,,"null","251887"
"C145658","36","11/3/82","m","English","United States of America","static","html-button-response","135",,"6,3,1,2","0",,,,,"169","252057"
"C145658","36","11/3/82","m","English","United States of America","static","audio-keyboard-response","136","sound/6star.wav","6,3,1,2",,"6","375",,,"null","253558"
"C145658","36","11/3/82","m","English","United States of America","static","html-button-response","137",,"6,3,1,2","0",,,,,"130","253690"
"C145658","36","11/3/82","m","English","United States of America","static","audio-keyboard-response","138","sound/6star.wav","6,3,1,2",,"6","381",,,"null","255194"
"C145658","36","11/3/82","m","English","United States of America","static","html-button-response","139",,"6,3,1,2","0",,,,,"125","255321"
"C145658","36","11/3/82","m","English","United States of America","static","audio-keyboard-response","140","sound/6star.wav","6,3,1,2",,"6","387",,,"null","256823"
"C145658","36","11/3/82","m","English","United States of America","static","html-button-response","141",,"6,3,1,2","0",,,,,"309","257133"
"C145658","36","11/3/82","m","English","United States of America","static","audio-keyboard-response","142","sound/6star.wav","6,3,1,2",,"6","393",,,"null","258633"
"C145658","36","11/3/82","m","English","United States of America","static","html-button-response","143",,"6,3,1,2","0",,,,,"200","258835"
"C145658","36","11/3/82","m","English","United States of America","static","audio-keyboard-response","144","sound/6star.wav","6,3,1,2",,"6","399",,,"null","260335"
"C145658","36","11/3/82","m","English","United States of America","static","html-button-response","145",,"6,3,1,2","0",,,,,"203","260539"
"C145658","36","11/3/82","m","English","United States of America","static","audio-keyboard-response","146","sound/6star.wav","6,3,1,2",,"6","405",,,"null","262040"
"C145658","36","11/3/82","m","English","United States of America","static","html-button-response","147",,"6,3,1,2","0",,,,,"324","262365"
"C145658","36","11/3/82","m","English","United States of America","static","audio-keyboard-response","148","sound/6star.wav","6,3,1,2",,"6","411",,,"null","263865"
"C145658","36","11/3/82","m","English","United States of America","static","html-button-response","149",,"6,3,1,2","0",,,,,"233","264100"
"C145658","36","11/3/82","m","English","United States of America","static","audio-keyboard-response","150","sound/6star.wav","6,3,1,2",,"6","417",,,"null","265600"
"C145658","36","11/3/82","m","English","United States of America","static","html-button-response","151",,"6,3,1,2","0",,,,,"145","265747"
"C145658","36","11/3/82","m","English","United States of America","static","audio-keyboard-response","152","sound/6star.wav","6,3,1,2",,"6","423",,,"null","267247"
"C145658","36","11/3/82","m","English","United States of America","static","html-button-response","153",,"6,3,1,2","0",,,,,"249","267497"
"C145658","36","11/3/82","m","English","United States of America","static","audio-keyboard-response","154","sound/6star.wav","6,3,1,2",,"6","429",,,"null","268997"
"C145658","36","11/3/82","m","English","United States of America","static","html-button-response","155",,"6,3,1,2","0",,,,,"163","269161"
"C145658","36","11/3/82","m","English","United States of America","static","audio-keyboard-response","156","sound/6star.wav","6,3,1,2",,"6","435",,,"null","270662"
"C145658","36","11/3/82","m","English","United States of America","static","html-button-response","157",,"6,3,1,2","0",,,,,"199","270863"
"C145658","36","11/3/82","m","English","United States of America","static","audio-keyboard-response","158","sound/6star.wav","6,3,1,2",,"6","441",,,"null","272363"
"C145658","36","11/3/82","m","English","United States of America","static","html-button-response","159",,"6,3,1,2","0",,,,,"365","272729"
"C145658","36","11/3/82","m","English","United States of America","static","audio-keyboard-response","160","sound/6star.wav","6,3,1,2",,"6","447",,,"null","274231"
"C145658","36","11/3/82","m","English","United States of America","static","html-button-response","161",,"6,3,1,2","0",,,,,"129","274361"
"C145658","36","11/3/82","m","English","United States of America","static","audio-keyboard-response","162","sound/6star.wav","6,3,1,2",,"6","453",,,"null","275863"
"C145658","36","11/3/82","m","English","United States of America","static","html-button-response","163",,"6,3,1,2","0",,,,,"139","276004"
"C145658","36","11/3/82","m","English","United States of America","static","audio-keyboard-response","164","sound/6star.wav","6,3,1,2",,"6","459",,,"null","277505"
"C145658","36","11/3/82","m","English","United States of America","static","html-button-response","165",,"6,3,1,2","0",,,,,"245","277751"
"C145658","36","11/3/82","m","English","United States of America","static","audio-keyboard-response","166","sound/6star.wav","6,3,1,2",,"6","465",,,"null","279252"
"C145658","36","11/3/82","m","English","United States of America","static","audio-button-response","167","sound/celebration.wav","6,3,1,2","0",,,,,"6171","285426"
"C145658","36","11/3/82","m","English","United States of America","static","html-button-response","168","Which, if any, of these monsters ever gave you <b>1 star</b>?</p>","6,3,1,2","2",,,"correct",,"6574","292001"
"C145658","36","11/3/82","m","English","United States of America","static","html-button-response","169","Which, if any, of these monsters ever gave you <b>2 stars</b>?</p>","6,3,1,2","3",,,"correct",,"3731","296535"
"C145658","36","11/3/82","m","English","United States of America","static","html-button-response","170","Which, if any, of these monsters ever gave you <b>3 stars</b>?</p>","6,3,1,2","1",,,"correct",,"1234","298571"
"C145658","36","11/3/82","m","English","United States of America","static","html-button-response","171","Which, if any, of these monsters ever gave you <b>6 stars</b>?</p>","6,3,1,2","0",,,"correct",,"3172","302745"
"C145658","36","11/3/82","m","English","United States of America","static","html-button-response","172","Which, if any, of these monsters ever gave you <b>8 stars</b>?</p>","6,3,1,2","4",,,"correct",,"3032","306580"
"C145658","36","11/3/82","m","English","United States of America","static","html-button-response","173","Which monster did you like the most?</p>","6,3,1,2","0",,,,,"4266","311647"
"C145658","36","11/3/82","m","English","United States of America","static","survey-text","174",,"6,3,1,2",,,,,"\{""Q0"":""most stars""\}","8258","320705"
"C200608","26","1/3/93","male","English","United States of America","dynamic","html-button-response","0","<p>Hi! Welcome to the experiment. This study takes the form of a simple decision making task.<br> It is designed to help us learn how children make decisions, so it will look like a kid's game.<br> However, in order to understand how kids make choices, we need to compare what they do to adults<br> doing the same task. That's you! Because of this, we ask you to take the task seriously and do your<br>best, even if the task seems like a strange thing for an adult to do.</p>","1,3,2,6","0",,,,,"210408","210412"
"C200608","26","1/3/93","male","English","United States of America","dynamic","animation","1",,"1,3,2,6",,,,,"[]",,"222416"
"C200608","26","1/3/93","male","English","United States of America","dynamic","html-button-response","2","<img src='img/screen1d.png'></img>","1,3,2,6","0",,,,,"1590","224008"
"C200608","26","1/3/93","male","English","United States of America","dynamic","animation","3",,"1,3,2,6",,,,,"[]",,"245613"
"C200608","26","1/3/93","male","English","United States of America","dynamic","html-button-response","4","<img src='img/screen5e.jpg'></img>","1,3,2,6","0",,,,,"1994","247608"
"C200608","26","1/3/93","male","English","United States of America","dynamic","survey-multi-choice","5",,"1,3,2,6",,,,,"\{""Q0"":"" You click on the monsters"",""Q1"":"" Because the main study will have children participating""\}","8037","255650"
"C200608","26","1/3/93","male","English","United States of America","dynamic","html-button-response","6","Well done!","1,3,2,6","0",,,,,"1007","256664"
"C200608","26","1/3/93","male","English","United States of America","dynamic","html-button-response","7",,"1,3,2,6","1",,,,,"4736","261401"
"C200608","26","1/3/93","male","English","United States of America","dynamic","audio-keyboard-response","8","sound/3star.wav","1,3,2,6",,"3","3",,,"null","262913"
"C200608","26","1/3/93","male","English","United States of America","dynamic","html-button-response","9",,"1,3,2,6","1",,,,,"2685","265602"
"C200608","26","1/3/93","male","English","United States of America","dynamic","audio-keyboard-response","10","sound/3star.wav","1,3,2,6",,"3","6",,,"null","267108"
"C200608","26","1/3/93","male","English","United States of America","dynamic","html-button-response","11",,"1,3,2,6","0",,,,,"706","267816"
"C200608","26","1/3/93","male","English","United States of America","dynamic","audio-keyboard-response","12","sound/1star.wav","1,3,2,6",,"1","7",,,"null","269326"
"C200608","26","1/3/93","male","English","United States of America","dynamic","html-button-response","13",,"1,3,2,6","3",,,,,"648","269977"
"C200608","26","1/3/93","male","English","United States of America","dynamic","audio-keyboard-response","14","sound/6star.wav","1,3,2,6",,"6","13",,,"null","271486"
"C200608","26","1/3/93","male","English","United States of America","dynamic","html-button-response","15",,"1,3,2,6","2",,,,,"639","272127"
"C200608","26","1/3/93","male","English","United States of America","dynamic","audio-keyboard-response","16","sound/2star.wav","1,3,2,6",,"2","15",,,"null","273634"
"C200608","26","1/3/93","male","English","United States of America","dynamic","html-button-response","17",,"1,3,2,6","3",,,,,"459","274097"
"C200608","26","1/3/93","male","English","United States of America","dynamic","audio-keyboard-response","18","sound/6star.wav","1,3,2,6",,"6","21",,,"null","275607"
"C200608","26","1/3/93","male","English","United States of America","dynamic","html-button-response","19",,"1,3,2,6","3",,,,,"367","275977"
"C200608","26","1/3/93","male","English","United States of America","dynamic","audio-keyboard-response","20","sound/6star.wav","1,3,2,6",,"6","27",,,"null","277507"
"C200608","26","1/3/93","male","English","United States of America","dynamic","html-button-response","21",,"1,3,2,6","3",,,,,"1316","278825"
"C200608","26","1/3/93","male","English","United States of America","dynamic","audio-keyboard-response","22","sound/6star.wav","1,3,2,6",,"6","33",,,"null","280332"
"C200608","26","1/3/93","male","English","United States of America","dynamic","html-button-response","23",,"1,3,2,6","3",,,,,"704","281039"
"C200608","26","1/3/93","male","English","United States of America","dynamic","audio-keyboard-response","24","sound/6star.wav","1,3,2,6",,"6","39",,,"null","282544"
"C200608","26","1/3/93","male","English","United States of America","dynamic","html-button-response","25",,"1,3,2,6","3",,,,,"382","282929"
"C200608","26","1/3/93","male","English","United States of America","dynamic","audio-keyboard-response","26","sound/6star.wav","1,3,2,6",,"6","45",,,"null","284434"
"C200608","26","1/3/93","male","English","United States of America","dynamic","html-button-response","27",,"1,3,2,6","3",,,,,"346","284785"
"C200608","26","1/3/93","male","English","United States of America","dynamic","audio-keyboard-response","28","sound/6star.wav","1,3,2,6",,"6","51",,,"null","286294"
"C200608","26","1/3/93","male","English","United States of America","dynamic","html-button-response","29",,"1,3,2,6","3",,,,,"414","286711"
"C200608","26","1/3/93","male","English","United States of America","dynamic","audio-keyboard-response","30","sound/6star.wav","1,3,2,6",,"6","57",,,"null","288221"
"C200608","26","1/3/93","male","English","United States of America","dynamic","html-button-response","31",,"1,3,2,6","3",,,,,"320","288544"
"C200608","26","1/3/93","male","English","United States of America","dynamic","audio-keyboard-response","32","sound/6star.wav","1,3,2,6",,"6","63",,,"null","290049"
"C200608","26","1/3/93","male","English","United States of America","dynamic","html-button-response","33",,"1,3,2,6","3",,,,,"315","290367"
"C200608","26","1/3/93","male","English","United States of America","dynamic","audio-keyboard-response","34","sound/6star.wav","1,3,2,6",,"6","69",,,"null","291878"
"C200608","26","1/3/93","male","English","United States of America","dynamic","html-button-response","35",,"1,3,2,6","3",,,,,"327","292208"
"C200608","26","1/3/93","male","English","United States of America","dynamic","audio-keyboard-response","36","sound/6star.wav","1,3,2,6",,"6","75",,,"null","293718"
"C200608","26","1/3/93","male","English","United States of America","dynamic","html-button-response","37",,"1,3,2,6","3",,,,,"271","293992"
"C200608","26","1/3/93","male","English","United States of America","dynamic","audio-keyboard-response","38","sound/6star.wav","1,3,2,6",,"6","81",,,"null","295500"
"C200608","26","1/3/93","male","English","United States of America","dynamic","html-button-response","39",,"1,3,2,6","3",,,,,"353","295856"
"C200608","26","1/3/93","male","English","United States of America","dynamic","audio-keyboard-response","40","sound/6star.wav","1,3,2,6",,"6","87",,,"null","297363"
"C200608","26","1/3/93","male","English","United States of America","dynamic","html-button-response","41",,"1,3,2,6","3",,,,,"410","297776"
"C200608","26","1/3/93","male","English","United States of America","dynamic","audio-keyboard-response","42","sound/6star.wav","1,3,2,6",,"6","93",,,"null","299299"
"C200608","26","1/3/93","male","English","United States of America","dynamic","html-button-response","43",,"1,3,2,6","3",,,,,"7168","306473"
"C200608","26","1/3/93","male","English","United States of America","dynamic","audio-keyboard-response","44","sound/6star.wav","1,3,2,6",,"6","99",,,"null","307977"
"C200608","26","1/3/93","male","English","United States of America","dynamic","html-button-response","45",,"1,3,2,6","3",,,,,"453","308432"
"C200608","26","1/3/93","male","English","United States of America","dynamic","audio-keyboard-response","46","sound/6star.wav","1,3,2,6",,"6","105",,,"null","309940"
"C200608","26","1/3/93","male","English","United States of America","dynamic","html-button-response","47",,"1,3,2,6","3",,,,,"388","310330"
"C200608","26","1/3/93","male","English","United States of America","dynamic","audio-keyboard-response","48","sound/6star.wav","1,3,2,6",,"6","111",,,"null","311835"
"C200608","26","1/3/93","male","English","United States of America","dynamic","html-button-response","49",,"1,3,2,6","3",,,,,"362","312199"
"C200608","26","1/3/93","male","English","United States of America","dynamic","audio-keyboard-response","50","sound/6star.wav","1,3,2,6",,"6","117",,,"null","313704"
"C200608","26","1/3/93","male","English","United States of America","dynamic","html-button-response","51",,"1,3,2,6","3",,,,,"1598","315305"
"C200608","26","1/3/93","male","English","United States of America","dynamic","audio-keyboard-response","52","sound/6star.wav","1,3,2,6",,"6","123",,,"null","316810"
"C200608","26","1/3/93","male","English","United States of America","dynamic","html-button-response","53",,"1,3,2,6","3",,,,,"298","317112"
"C200608","26","1/3/93","male","English","United States of America","dynamic","audio-keyboard-response","54","sound/6star.wav","1,3,2,6",,"6","129",,,"null","318621"
"C200608","26","1/3/93","male","English","United States of America","dynamic","html-button-response","55",,"1,3,2,6","3",,,,,"894","319518"
"C200608","26","1/3/93","male","English","United States of America","dynamic","audio-keyboard-response","56","sound/6star.wav","1,3,2,6",,"6","135",,,"null","321021"
"C200608","26","1/3/93","male","English","United States of America","dynamic","html-button-response","57",,"1,3,2,6","3",,,,,"231","321256"
"C200608","26","1/3/93","male","English","United States of America","dynamic","audio-keyboard-response","58","sound/6star.wav","1,3,2,6",,"6","141",,,"null","322766"
"C200608","26","1/3/93","male","English","United States of America","dynamic","html-button-response","59",,"1,3,2,6","3",,,,,"326","323095"
"C200608","26","1/3/93","male","English","United States of America","dynamic","audio-keyboard-response","60","sound/6star.wav","1,3,2,6",,"6","147",,,"null","324606"
"C200608","26","1/3/93","male","English","United States of America","dynamic","html-button-response","61",,"1,3,2,6","3",,,,,"718","325327"
"C200608","26","1/3/93","male","English","United States of America","dynamic","audio-keyboard-response","62","sound/6star.wav","1,3,2,6",,"6","153",,,"null","326835"
"C200608","26","1/3/93","male","English","United States of America","dynamic","html-button-response","63",,"1,3,2,6","3",,,,,"745","327583"
"C200608","26","1/3/93","male","English","United States of America","dynamic","audio-keyboard-response","64","sound/6star.wav","1,3,2,6",,"6","159",,,"null","329087"
"C200608","26","1/3/93","male","English","United States of America","dynamic","html-button-response","65",,"1,3,2,6","3",,,,,"309","329399"
"C200608","26","1/3/93","male","English","United States of America","dynamic","audio-keyboard-response","66","sound/6star.wav","1,3,2,6",,"6","165",,,"null","330904"
"C200608","26","1/3/93","male","English","United States of America","dynamic","html-button-response","67",,"1,3,2,6","3",,,,,"324","331231"
"C200608","26","1/3/93","male","English","United States of America","dynamic","audio-keyboard-response","68","sound/6star.wav","1,3,2,6",,"6","171",,,"null","332738"
"C200608","26","1/3/93","male","English","United States of America","dynamic","html-button-response","69",,"1,3,2,6","3",,,,,"329","333071"
"C200608","26","1/3/93","male","English","United States of America","dynamic","audio-keyboard-response","70","sound/6star.wav","1,3,2,6",,"6","177",,,"null","334579"
"C200608","26","1/3/93","male","English","United States of America","dynamic","html-button-response","71",,"1,3,2,6","3",,,,,"313","334895"
"C200608","26","1/3/93","male","English","United States of America","dynamic","audio-keyboard-response","72","sound/6star.wav","1,3,2,6",,"6","183",,,"null","336401"
"C200608","26","1/3/93","male","English","United States of America","dynamic","html-button-response","73",,"1,3,2,6","3",,,,,"315","336719"
"C200608","26","1/3/93","male","English","United States of America","dynamic","audio-keyboard-response","74","sound/6star.wav","1,3,2,6",,"6","189",,,"null","338224"
"C200608","26","1/3/93","male","English","United States of America","dynamic","html-button-response","75",,"1,3,2,6","3",,,,,"316","338543"
"C200608","26","1/3/93","male","English","United States of America","dynamic","audio-keyboard-response","76","sound/6star.wav","1,3,2,6",,"6","195",,,"null","340053"
"C200608","26","1/3/93","male","English","United States of America","dynamic","html-button-response","77",,"1,3,2,6","3",,,,,"276","340332"
"C200608","26","1/3/93","male","English","United States of America","dynamic","audio-keyboard-response","78","sound/6star.wav","1,3,2,6",,"6","201",,,"null","341841"
"C200608","26","1/3/93","male","English","United States of America","dynamic","html-button-response","79",,"1,3,2,6","3",,,,,"528","342375"
"C200608","26","1/3/93","male","English","United States of America","dynamic","audio-keyboard-response","80","sound/6star.wav","1,3,2,6",,"6","207",,,"null","343878"
"C200608","26","1/3/93","male","English","United States of America","dynamic","html-button-response","81",,"1,3,2,6","3",,,,,"310","344190"
"C200608","26","1/3/93","male","English","United States of America","dynamic","audio-keyboard-response","82","sound/6star.wav","1,3,2,6",,"6","213",,,"null","345694"
"C200608","26","1/3/93","male","English","United States of America","dynamic","html-button-response","83",,"1,3,2,6","3",,,,,"269","345966"
"C200608","26","1/3/93","male","English","United States of America","dynamic","audio-keyboard-response","84","sound/6star.wav","1,3,2,6",,"6","219",,,"null","347476"
"C200608","26","1/3/93","male","English","United States of America","dynamic","html-button-response","85",,"1,3,2,6","3",,,,,"183","347663"
"C200608","26","1/3/93","male","English","United States of America","dynamic","audio-keyboard-response","86","sound/6star.wav","1,3,2,6",,"6","225",,,"null","349172"
"C200608","26","1/3/93","male","English","United States of America","dynamic","html-button-response","87",,"1,3,2,6","3",,,,,"199","349374"
"C200608","26","1/3/93","male","English","United States of America","dynamic","audio-keyboard-response","88","sound/6star.wav","1,3,2,6",,"6","231",,,"null","350884"
"C200608","26","1/3/93","male","English","United States of America","dynamic","html-button-response","89",,"1,3,2,6","3",,,,,"320","351207"
"C200608","26","1/3/93","male","English","United States of America","dynamic","audio-keyboard-response","90","sound/6star.wav","1,3,2,6",,"6","237",,,"null","352713"
"C200608","26","1/3/93","male","English","United States of America","dynamic","html-button-response","91",,"1,3,2,6","3",,,,,"258","352974"
"C200608","26","1/3/93","male","English","United States of America","dynamic","audio-keyboard-response","92","sound/6star.wav","1,3,2,6",,"6","243",,,"null","354483"
"C200608","26","1/3/93","male","English","United States of America","dynamic","html-button-response","93",,"1,3,2,6","3",,,,,"353","354838"
"C200608","26","1/3/93","male","English","United States of America","dynamic","audio-keyboard-response","94","sound/6star.wav","1,3,2,6",,"6","249",,,"null","356347"
"C200608","26","1/3/93","male","English","United States of America","dynamic","html-button-response","95",,"1,3,2,6","3",,,,,"255","356605"
"C200608","26","1/3/93","male","English","United States of America","dynamic","audio-keyboard-response","96","sound/6star.wav","1,3,2,6",,"6","255",,,"null","358111"
"C200608","26","1/3/93","male","English","United States of America","dynamic","html-button-response","97",,"1,3,2,6","3",,,,,"324","358438"
"C200608","26","1/3/93","male","English","United States of America","dynamic","audio-keyboard-response","98","sound/6star.wav","1,3,2,6",,"6","261",,,"null","359945"
"C200608","26","1/3/93","male","English","United States of America","dynamic","html-button-response","99",,"1,3,2,6","3",,,,,"347","360295"
"C200608","26","1/3/93","male","English","United States of America","dynamic","audio-keyboard-response","100","sound/6star.wav","1,3,2,6",,"6","267",,,"null","361803"
"C200608","26","1/3/93","male","English","United States of America","dynamic","html-button-response","101",,"1,3,2,6","3",,,,,"273","362079"
"C200608","26","1/3/93","male","English","United States of America","dynamic","audio-keyboard-response","102","sound/6star.wav","1,3,2,6",,"6","273",,,"null","363585"
"C200608","26","1/3/93","male","English","United States of America","dynamic","html-button-response","103",,"1,3,2,6","3",,,,,"314","363903"
"C200608","26","1/3/93","male","English","United States of America","dynamic","audio-keyboard-response","104","sound/6star.wav","1,3,2,6",,"6","279",,,"null","365414"
"C200608","26","1/3/93","male","English","United States of America","dynamic","html-button-response","105",,"1,3,2,6","3",,,,,"278","365694"
"C200608","26","1/3/93","male","English","United States of America","dynamic","audio-keyboard-response","106","sound/6star.wav","1,3,2,6",,"6","285",,,"null","367202"
"C200608","26","1/3/93","male","English","United States of America","dynamic","html-button-response","107",,"1,3,2,6","3",,,,,"250","367454"
"C200608","26","1/3/93","male","English","United States of America","dynamic","audio-keyboard-response","108","sound/6star.wav","1,3,2,6",,"6","291",,,"null","368961"
"C200608","26","1/3/93","male","English","United States of America","dynamic","html-button-response","109",,"1,3,2,6","3",,,,,"249","369214"
"C200608","26","1/3/93","male","English","United States of America","dynamic","audio-keyboard-response","110","sound/6star.wav","1,3,2,6",,"6","297",,,"null","370719"
"C200608","26","1/3/93","male","English","United States of America","dynamic","html-button-response","111",,"1,3,2,6","3",,,,,"348","371071"
"C200608","26","1/3/93","male","English","United States of America","dynamic","audio-keyboard-response","112","sound/6star.wav","1,3,2,6",,"6","303",,,"null","372577"
"C200608","26","1/3/93","male","English","United States of America","dynamic","html-button-response","113",,"1,3,2,6","3",,,,,"305","372885"
"C200608","26","1/3/93","male","English","United States of America","dynamic","audio-keyboard-response","114","sound/6star.wav","1,3,2,6",,"6","309",,,"null","374393"
"C200608","26","1/3/93","male","English","United States of America","dynamic","html-button-response","115",,"1,3,2,6","3",,,,,"315","374710"
"C200608","26","1/3/93","male","English","United States of America","dynamic","audio-keyboard-response","116","sound/6star.wav","1,3,2,6",,"6","315",,,"null","376216"
"C200608","26","1/3/93","male","English","United States of America","dynamic","html-button-response","117",,"1,3,2,6","3",,,,,"33714","409933"
"C200608","26","1/3/93","male","English","United States of America","dynamic","audio-keyboard-response","118","sound/6star.wav","1,3,2,6",,"6","321",,,"null","411440"
"C200608","26","1/3/93","male","English","United States of America","dynamic","html-button-response","119",,"1,3,2,6","3",,,,,"402","411845"
"C200608","26","1/3/93","male","English","United States of America","dynamic","audio-keyboard-response","120","sound/6star.wav","1,3,2,6",,"6","327",,,"null","413350"
"C200608","26","1/3/93","male","English","United States of America","dynamic","html-button-response","121",,"1,3,2,6","3",,,,,"5044","418397"
"C200608","26","1/3/93","male","English","United States of America","dynamic","audio-keyboard-response","122","sound/6star.wav","1,3,2,6",,"6","333",,,"null","419904"
"C200608","26","1/3/93","male","English","United States of America","dynamic","html-button-response","123",,"1,3,2,6","3",,,,,"440","420347"
"C200608","26","1/3/93","male","English","United States of America","dynamic","audio-keyboard-response","124","sound/6star.wav","1,3,2,6",,"6","339",,,"null","421850"
"C200608","26","1/3/93","male","English","United States of America","dynamic","html-button-response","125",,"1,3,2,6","3",,,,,"311","422163"
"C200608","26","1/3/93","male","English","United States of America","dynamic","audio-keyboard-response","126","sound/6star.wav","1,3,2,6",,"6","345",,,"null","423670"
"C200608","26","1/3/93","male","English","United States of America","dynamic","html-button-response","127",,"1,3,2,6","3",,,,,"3692","427364"
"C200608","26","1/3/93","male","English","United States of America","dynamic","audio-keyboard-response","128","sound/6star.wav","1,3,2,6",,"6","351",,,"null","428872"
"C200608","26","1/3/93","male","English","United States of America","dynamic","html-button-response","129",,"1,3,2,6","3",,,,,"393","429268"
"C200608","26","1/3/93","male","English","United States of America","dynamic","audio-keyboard-response","130","sound/6star.wav","1,3,2,6",,"6","357",,,"null","430776"
"C200608","26","1/3/93","male","English","United States of America","dynamic","html-button-response","131",,"1,3,2,6","3",,,,,"3832","434610"
"C200608","26","1/3/93","male","English","United States of America","dynamic","audio-keyboard-response","132","sound/6star.wav","1,3,2,6",,"6","363",,,"null","436116"
"C200608","26","1/3/93","male","English","United States of America","dynamic","html-button-response","133",,"1,3,2,6","3",,,,,"326","436444"
"C200608","26","1/3/93","male","English","United States of America","dynamic","audio-keyboard-response","134","sound/6star.wav","1,3,2,6",,"6","369",,,"null","437951"
"C200608","26","1/3/93","male","English","United States of America","dynamic","html-button-response","135",,"1,3,2,6","3",,,,,"307","438260"
"C200608","26","1/3/93","male","English","United States of America","dynamic","audio-keyboard-response","136","sound/6star.wav","1,3,2,6",,"6","375",,,"null","439768"
"C200608","26","1/3/93","male","English","United States of America","dynamic","html-button-response","137",,"1,3,2,6","3",,,,,"329","440100"
"C200608","26","1/3/93","male","English","United States of America","dynamic","audio-keyboard-response","138","sound/6star.wav","1,3,2,6",,"6","381",,,"null","441607"
"C200608","26","1/3/93","male","English","United States of America","dynamic","html-button-response","139",,"1,3,2,6","3",,,,,"386","441996"
"C200608","26","1/3/93","male","English","United States of America","dynamic","audio-keyboard-response","140","sound/6star.wav","1,3,2,6",,"6","387",,,"null","443506"
"C200608","26","1/3/93","male","English","United States of America","dynamic","html-button-response","141",,"1,3,2,6","3",,,,,"342","443851"
"C200608","26","1/3/93","male","English","United States of America","dynamic","audio-keyboard-response","142","sound/6star.wav","1,3,2,6",,"6","393",,,"null","445358"
"C200608","26","1/3/93","male","English","United States of America","dynamic","html-button-response","143",,"1,3,2,6","3",,,,,"323","445684"
"C200608","26","1/3/93","male","English","United States of America","dynamic","audio-keyboard-response","144","sound/6star.wav","1,3,2,6",,"6","399",,,"null","447189"
"C200608","26","1/3/93","male","English","United States of America","dynamic","html-button-response","145",,"1,3,2,6","3",,,,,"333","447524"
"C200608","26","1/3/93","male","English","United States of America","dynamic","audio-keyboard-response","146","sound/6star.wav","1,3,2,6",,"6","405",,,"null","449032"
"C200608","26","1/3/93","male","English","United States of America","dynamic","html-button-response","147",,"1,3,2,6","3",,,,,"345","449380"
"C200608","26","1/3/93","male","English","United States of America","dynamic","audio-keyboard-response","148","sound/6star.wav","1,3,2,6",,"6","411",,,"null","450884"
"C200608","26","1/3/93","male","English","United States of America","dynamic","html-button-response","149",,"1,3,2,6","3",,,,,"307","451194"
"C200608","26","1/3/93","male","English","United States of America","dynamic","audio-keyboard-response","150","sound/6star.wav","1,3,2,6",,"6","417",,,"null","452701"
"C200608","26","1/3/93","male","English","United States of America","dynamic","html-button-response","151",,"1,3,2,6","3",,,,,"321","453027"
"C200608","26","1/3/93","male","English","United States of America","dynamic","audio-keyboard-response","152","sound/6star.wav","1,3,2,6",,"6","423",,,"null","454535"
"C200608","26","1/3/93","male","English","United States of America","dynamic","html-button-response","153",,"1,3,2,6","3",,,,,"298","454836"
"C200608","26","1/3/93","male","English","United States of America","dynamic","audio-keyboard-response","154","sound/6star.wav","1,3,2,6",,"6","429",,,"null","456340"
"C200608","26","1/3/93","male","English","United States of America","dynamic","html-button-response","155",,"1,3,2,6","3",,,,,"564","456906"
"C200608","26","1/3/93","male","English","United States of America","dynamic","audio-keyboard-response","156","sound/6star.wav","1,3,2,6",,"6","435",,,"null","458413"
"C200608","26","1/3/93","male","English","United States of America","dynamic","html-button-response","157",,"1,3,2,6","3",,,,,"244","458660"
"C200608","26","1/3/93","male","English","United States of America","dynamic","audio-keyboard-response","158","sound/6star.wav","1,3,2,6",,"6","441",,,"null","460166"
"C200608","26","1/3/93","male","English","United States of America","dynamic","html-button-response","159",,"1,3,2,6","3",,,,,"258","460426"
"C200608","26","1/3/93","male","English","United States of America","dynamic","audio-keyboard-response","160","sound/6star.wav","1,3,2,6",,"6","447",,,"null","461936"
"C200608","26","1/3/93","male","English","United States of America","dynamic","html-button-response","161",,"1,3,2,6","3",,,,,"43432","505370"
"C200608","26","1/3/93","male","English","United States of America","dynamic","audio-keyboard-response","162","sound/6star.wav","1,3,2,6",,"6","453",,,"null","506878"
"C200608","26","1/3/93","male","English","United States of America","dynamic","html-button-response","163",,"1,3,2,6","3",,,,,"393","507273"
"C200608","26","1/3/93","male","English","United States of America","dynamic","audio-keyboard-response","164","sound/6star.wav","1,3,2,6",,"6","459",,,"null","508783"
"C200608","26","1/3/93","male","English","United States of America","dynamic","html-button-response","165",,"1,3,2,6","3",,,,,"296","509082"
"C200608","26","1/3/93","male","English","United States of America","dynamic","audio-keyboard-response","166","sound/6star.wav","1,3,2,6",,"6","465",,,"null","510593"
"C200608","26","1/3/93","male","English","United States of America","dynamic","audio-button-response","167","sound/celebration.wav","1,3,2,6","0",,,,,"4215","514811"
"C200608","26","1/3/93","male","English","United States of America","dynamic","html-button-response","168","Which, if any, of these monsters ever gave you <b>1 star</b>?</p>","1,3,2,6","0",,,"correct",,"7972","522786"
"C200608","26","1/3/93","male","English","United States of America","dynamic","html-button-response","169","Which, if any, of these monsters ever gave you <b>2 stars</b>?</p>","1,3,2,6","2",,,"correct",,"2458","526051"
"C200608","26","1/3/93","male","English","United States of America","dynamic","html-button-response","170","Which, if any, of these monsters ever gave you <b>3 stars</b>?</p>","1,3,2,6","1",,,"correct",,"828","527683"
"C200608","26","1/3/93","male","English","United States of America","dynamic","html-button-response","171","Which, if any, of these monsters ever gave you <b>6 stars</b>?</p>","1,3,2,6","3",,,"correct",,"873","529563"
"C200608","26","1/3/93","male","English","United States of America","dynamic","html-button-response","172","Which, if any, of these monsters ever gave you <b>8 stars</b>?</p>","1,3,2,6","4",,,"incorrect",,"3108","533475"
"C200608","26","1/3/93","male","English","United States of America","dynamic","html-button-response","173","Which monster did you like the most?</p>","1,3,2,6","3",,,,,"9586","543868"
"C200608","26","1/3/93","male","English","United States of America","dynamic","survey-text","174",,"1,3,2,6",,,,,"\{""Q0"":""I liked this monster the most because it gave me the most stars.""\}","17583","562254"
"C208225","30","3/11/89","male","English","United States of America","static","html-button-response","0","<p>Hi! Welcome to the experiment. This study takes the form of a simple decision making task.<br> It is designed to help us learn how children make decisions, so it will look like a kid's game.<br> However, in order to understand how kids make choices, we need to compare what they do to adults<br> doing the same task. That's you! Because of this, we ask you to take the task seriously and do your<br>best, even if the task seems like a strange thing for an adult to do.</p>","6,1,3,2","0",,,,,"3267","3268"
"C208225","30","3/11/89","male","English","United States of America","static","animation","1",,"6,1,3,2",,,,,"[]",,"15270"
"C208225","30","3/11/89","male","English","United States of America","static","html-button-response","2","<img src='img/screen1d.png'></img>","6,1,3,2","0",,,,,"2103","17373"
"C208225","30","3/11/89","male","English","United States of America","static","animation","3",,"6,1,3,2",,,,,"[]",,"38176"
"C208225","30","3/11/89","male","English","United States of America","static","html-button-response","4","<img src='img/screen5e.jpg'></img>","6,1,3,2","0",,,,,"1116","39292"
"C208225","30","3/11/89","male","English","United States of America","static","survey-multi-choice","5",,"6,1,3,2",,,,,"\{""Q0"":"" You click on the monsters"",""Q1"":"" Because the main study will have children participating""\}","10547","49842"
"C208225","30","3/11/89","male","English","United States of America","static","html-button-response","6","Well done!","6,1,3,2","0",,,,,"1046","50890"
"C208225","30","3/11/89","male","English","United States of America","static","html-button-response","7",,"6,1,3,2","0",,,,,"892","51782"
"C208225","30","3/11/89","male","English","United States of America","static","audio-keyboard-response","8","sound/6star.wav","6,1,3,2",,"6","6",,,"null","53285"
"C208225","30","3/11/89","male","English","United States of America","static","html-button-response","9",,"6,1,3,2","1",,,,,"597","53883"
"C208225","30","3/11/89","male","English","United States of America","static","audio-keyboard-response","10","sound/1star.wav","6,1,3,2",,"1","7",,,"null","55386"
"C208225","30","3/11/89","male","English","United States of America","static","html-button-response","11",,"6,1,3,2","0",,,,,"324","55710"
"C208225","30","3/11/89","male","English","United States of America","static","audio-keyboard-response","12","sound/6star.wav","6,1,3,2",,"6","13",,,"null","57213"
"C208225","30","3/11/89","male","English","United States of America","static","html-button-response","13",,"6,1,3,2","0",,,,,"316","57530"
"C208225","30","3/11/89","male","English","United States of America","static","audio-keyboard-response","14","sound/6star.wav","6,1,3,2",,"6","19",,,"null","59033"
"C208225","30","3/11/89","male","English","United States of America","static","html-button-response","15",,"6,1,3,2","0",,,,,"253","59286"
"C208225","30","3/11/89","male","English","United States of America","static","audio-keyboard-response","16","sound/6star.wav","6,1,3,2",,"6","25",,,"null","60788"
"C208225","30","3/11/89","male","English","United States of America","static","html-button-response","17",,"6,1,3,2","3",,,,,"362","61150"
"C208225","30","3/11/89","male","English","United States of America","static","audio-keyboard-response","18","sound/2star.wav","6,1,3,2",,"2","27",,,"null","62654"
"C208225","30","3/11/89","male","English","United States of America","static","html-button-response","19",,"6,1,3,2","2",,,,,"273","62928"
"C208225","30","3/11/89","male","English","United States of America","static","audio-keyboard-response","20","sound/3star.wav","6,1,3,2",,"3","30",,,"null","64429"
"C208225","30","3/11/89","male","English","United States of America","static","html-button-response","21",,"6,1,3,2","0",,,,,"361","64790"
"C208225","30","3/11/89","male","English","United States of America","static","audio-keyboard-response","22","sound/6star.wav","6,1,3,2",,"6","36",,,"null","66292"
"C208225","30","3/11/89","male","English","United States of America","static","html-button-response","23",,"6,1,3,2","0",,,,,"296","66590"
"C208225","30","3/11/89","male","English","United States of America","static","audio-keyboard-response","24","sound/6star.wav","6,1,3,2",,"6","42",,,"null","68092"
"C208225","30","3/11/89","male","English","United States of America","static","html-button-response","25",,"6,1,3,2","0",,,,,"453","68546"
"C208225","30","3/11/89","male","English","United States of America","static","audio-keyboard-response","26","sound/6star.wav","6,1,3,2",,"6","48",,,"null","70048"
"C208225","30","3/11/89","male","English","United States of America","static","html-button-response","27",,"6,1,3,2","0",,,,,"249","70299"
"C208225","30","3/11/89","male","English","United States of America","static","audio-keyboard-response","28","sound/6star.wav","6,1,3,2",,"6","54",,,"null","71800"
"C208225","30","3/11/89","male","English","United States of America","static","html-button-response","29",,"6,1,3,2","0",,,,,"192","71994"
"C208225","30","3/11/89","male","English","United States of America","static","audio-keyboard-response","30","sound/6star.wav","6,1,3,2",,"6","60",,,"null","73497"
"C208225","30","3/11/89","male","English","United States of America","static","html-button-response","31",,"6,1,3,2","0",,,,,"277","73776"
"C208225","30","3/11/89","male","English","United States of America","static","audio-keyboard-response","32","sound/6star.wav","6,1,3,2",,"6","66",,,"null","75279"
"C208225","30","3/11/89","male","English","United States of America","static","html-button-response","33",,"6,1,3,2","0",,,,,"432","75712"
"C208225","30","3/11/89","male","English","United States of America","static","audio-keyboard-response","34","sound/6star.wav","6,1,3,2",,"6","72",,,"null","77213"
"C208225","30","3/11/89","male","English","United States of America","static","html-button-response","35",,"6,1,3,2","0",,,,,"261","77475"
"C208225","30","3/11/89","male","English","United States of America","static","audio-keyboard-response","36","sound/6star.wav","6,1,3,2",,"6","78",,,"null","78977"
"C208225","30","3/11/89","male","English","United States of America","static","html-button-response","37",,"6,1,3,2","0",,,,,"368","79346"
"C208225","30","3/11/89","male","English","United States of America","static","audio-keyboard-response","38","sound/6star.wav","6,1,3,2",,"6","84",,,"null","80848"
"C208225","30","3/11/89","male","English","United States of America","static","html-button-response","39",,"6,1,3,2","0",,,,,"364","81212"
"C208225","30","3/11/89","male","English","United States of America","static","audio-keyboard-response","40","sound/6star.wav","6,1,3,2",,"6","90",,,"null","82716"
"C208225","30","3/11/89","male","English","United States of America","static","html-button-response","41",,"6,1,3,2","0",,,,,"286","83003"
"C208225","30","3/11/89","male","English","United States of America","static","audio-keyboard-response","42","sound/6star.wav","6,1,3,2",,"6","96",,,"null","84506"
"C208225","30","3/11/89","male","English","United States of America","static","html-button-response","43",,"6,1,3,2","0",,,,,"232","84739"
"C208225","30","3/11/89","male","English","United States of America","static","audio-keyboard-response","44","sound/6star.wav","6,1,3,2",,"6","102",,,"null","86240"
"C208225","30","3/11/89","male","English","United States of America","static","html-button-response","45",,"6,1,3,2","0",,,,,"204","86444"
"C208225","30","3/11/89","male","English","United States of America","static","audio-keyboard-response","46","sound/6star.wav","6,1,3,2",,"6","108",,,"null","87948"
"C208225","30","3/11/89","male","English","United States of America","static","html-button-response","47",,"6,1,3,2","0",,,,,"188","88136"
"C208225","30","3/11/89","male","English","United States of America","static","audio-keyboard-response","48","sound/6star.wav","6,1,3,2",,"6","114",,,"null","89644"
"C208225","30","3/11/89","male","English","United States of America","static","html-button-response","49",,"6,1,3,2","0",,,,,"164","89810"
"C208225","30","3/11/89","male","English","United States of America","static","audio-keyboard-response","50","sound/6star.wav","6,1,3,2",,"6","120",,,"null","91311"
"C208225","30","3/11/89","male","English","United States of America","static","html-button-response","51",,"6,1,3,2","0",,,,,"963","92276"
"C208225","30","3/11/89","male","English","United States of America","static","audio-keyboard-response","52","sound/6star.wav","6,1,3,2",,"6","126",,,"null","93777"
"C208225","30","3/11/89","male","English","United States of America","static","html-button-response","53",,"6,1,3,2","0",,,,,"256","94034"
"C208225","30","3/11/89","male","English","United States of America","static","audio-keyboard-response","54","sound/6star.wav","6,1,3,2",,"6","132",,,"null","95538"
"C208225","30","3/11/89","male","English","United States of America","static","html-button-response","55",,"6,1,3,2","0",,,,,"374","95913"
"C208225","30","3/11/89","male","English","United States of America","static","audio-keyboard-response","56","sound/6star.wav","6,1,3,2",,"6","138",,,"null","97416"
"C208225","30","3/11/89","male","English","United States of America","static","html-button-response","57",,"6,1,3,2","0",,,,,"290","97707"
"C208225","30","3/11/89","male","English","United States of America","static","audio-keyboard-response","58","sound/6star.wav","6,1,3,2",,"6","144",,,"null","99210"
"C208225","30","3/11/89","male","English","United States of America","static","html-button-response","59",,"6,1,3,2","0",,,,,"345","99555"
"C208225","30","3/11/89","male","English","United States of America","static","audio-keyboard-response","60","sound/6star.wav","6,1,3,2",,"6","150",,,"null","101059"
"C208225","30","3/11/89","male","English","United States of America","static","html-button-response","61",,"6,1,3,2","0",,,,,"347","101407"
"C208225","30","3/11/89","male","English","United States of America","static","audio-keyboard-response","62","sound/6star.wav","6,1,3,2",,"6","156",,,"null","102910"
"C208225","30","3/11/89","male","English","United States of America","static","html-button-response","63",,"6,1,3,2","0",,,,,"356","103268"
"C208225","30","3/11/89","male","English","United States of America","static","audio-keyboard-response","64","sound/6star.wav","6,1,3,2",,"6","162",,,"null","104772"
"C208225","30","3/11/89","male","English","United States of America","static","html-button-response","65",,"6,1,3,2","0",,,,,"236","105010"
"C208225","30","3/11/89","male","English","United States of America","static","audio-keyboard-response","66","sound/6star.wav","6,1,3,2",,"6","168",,,"null","106512"
"C208225","30","3/11/89","male","English","United States of America","static","html-button-response","67",,"6,1,3,2","0",,,,,"733","107245"
"C208225","30","3/11/89","male","English","United States of America","static","audio-keyboard-response","68","sound/6star.wav","6,1,3,2",,"6","174",,,"null","108749"
"C208225","30","3/11/89","male","English","United States of America","static","html-button-response","69",,"6,1,3,2","0",,,,,"330","109080"
"C208225","30","3/11/89","male","English","United States of America","static","audio-keyboard-response","70","sound/6star.wav","6,1,3,2",,"6","180",,,"null","110582"
"C208225","30","3/11/89","male","English","United States of America","static","html-button-response","71",,"6,1,3,2","0",,,,,"692","111275"
"C208225","30","3/11/89","male","English","United States of America","static","audio-keyboard-response","72","sound/6star.wav","6,1,3,2",,"6","186",,,"null","112779"
"C208225","30","3/11/89","male","English","United States of America","static","html-button-response","73",,"6,1,3,2","0",,,,,"473","113253"
"C208225","30","3/11/89","male","English","United States of America","static","audio-keyboard-response","74","sound/6star.wav","6,1,3,2",,"6","192",,,"null","114758"
"C208225","30","3/11/89","male","English","United States of America","static","html-button-response","75",,"6,1,3,2","0",,,,,"821","115579"
"C208225","30","3/11/89","male","English","United States of America","static","audio-keyboard-response","76","sound/6star.wav","6,1,3,2",,"6","198",,,"null","117080"
"C208225","30","3/11/89","male","English","United States of America","static","html-button-response","77",,"6,1,3,2","0",,,,,"268","117350"
"C208225","30","3/11/89","male","English","United States of America","static","audio-keyboard-response","78","sound/6star.wav","6,1,3,2",,"6","204",,,"null","118852"
"C208225","30","3/11/89","male","English","United States of America","static","html-button-response","79",,"6,1,3,2","0",,,,,"429","119283"
"C208225","30","3/11/89","male","English","United States of America","static","audio-keyboard-response","80","sound/6star.wav","6,1,3,2",,"6","210",,,"null","120786"
"C208225","30","3/11/89","male","English","United States of America","static","html-button-response","81",,"6,1,3,2","0",,,,,"223","121010"
"C208225","30","3/11/89","male","English","United States of America","static","audio-keyboard-response","82","sound/6star.wav","6,1,3,2",,"6","216",,,"null","122512"
"C208225","30","3/11/89","male","English","United States of America","static","html-button-response","83",,"6,1,3,2","0",,,,,"644","123157"
"C208225","30","3/11/89","male","English","United States of America","static","audio-keyboard-response","84","sound/6star.wav","6,1,3,2",,"6","222",,,"null","124659"
"C208225","30","3/11/89","male","English","United States of America","static","html-button-response","85",,"6,1,3,2","2",,,,,"279","124939"
"C208225","30","3/11/89","male","English","United States of America","static","audio-keyboard-response","86","sound/3star.wav","6,1,3,2",,"3","225",,,"null","126443"
"C208225","30","3/11/89","male","English","United States of America","static","html-button-response","87",,"6,1,3,2","3",,,,,"570","127014"
"C208225","30","3/11/89","male","English","United States of America","static","audio-keyboard-response","88","sound/2star.wav","6,1,3,2",,"2","227",,,"null","128515"
"C208225","30","3/11/89","male","English","United States of America","static","html-button-response","89",,"6,1,3,2","1",,,,,"281","128798"
"C208225","30","3/11/89","male","English","United States of America","static","audio-keyboard-response","90","sound/1star.wav","6,1,3,2",,"1","228",,,"null","130300"
"C208225","30","3/11/89","male","English","United States of America","static","html-button-response","91",,"6,1,3,2","0",,,,,"151","130452"
"C208225","30","3/11/89","male","English","United States of America","static","audio-keyboard-response","92","sound/6star.wav","6,1,3,2",,"6","234",,,"null","131953"
"C208225","30","3/11/89","male","English","United States of America","static","html-button-response","93",,"6,1,3,2","0",,,,,"303","132258"
"C208225","30","3/11/89","male","English","United States of America","static","audio-keyboard-response","94","sound/6star.wav","6,1,3,2",,"6","240",,,"null","133759"
"C208225","30","3/11/89","male","English","United States of America","static","html-button-response","95",,"6,1,3,2","0",,,,,"424","134184"
"C208225","30","3/11/89","male","English","United States of America","static","audio-keyboard-response","96","sound/6star.wav","6,1,3,2",,"6","246",,,"null","135687"
"C208225","30","3/11/89","male","English","United States of America","static","html-button-response","97",,"6,1,3,2","0",,,,,"289","135977"
"C208225","30","3/11/89","male","English","United States of America","static","audio-keyboard-response","98","sound/6star.wav","6,1,3,2",,"6","252",,,"null","137479"
"C208225","30","3/11/89","male","English","United States of America","static","html-button-response","99",,"6,1,3,2","0",,,,,"325","137804"
"C208225","30","3/11/89","male","English","United States of America","static","audio-keyboard-response","100","sound/6star.wav","6,1,3,2",,"6","258",,,"null","139305"
