"subjID","age","dob","gender","language","condition","trial_type","trial_index","stimulus","pointvals_firsthalf","button_pressed","earnedThis","earnedCumulative","posttest","responses","time_elapsed","group","highestVal","highestValLag","exploit","explore","earnedPrev","same","switch","status","time"
"C106540",19,"7/30/99","Female","English","dynamic","audio-keyboard-response",8,"sound/2star.wav",1263,NA,2,2,NA,NA,77784,"adult",2,NA,1,0,NA,NA,NA,0,80
"C106540",19,"7/30/99","Female","English","dynamic","audio-keyboard-response",10,"sound/2star.wav",1263,NA,2,4,NA,NA,80641,"adult",2,2,1,0,2,1,0,0,80
"C106540",19,"7/30/99","Female","English","dynamic","audio-keyboard-response",12,"sound/3star.wav",1263,NA,3,7,NA,NA,82805,"adult",3,2,1,0,2,0,1,0,80
"C106540",19,"7/30/99","Female","English","dynamic","audio-keyboard-response",14,"sound/6star.wav",1263,NA,6,13,NA,NA,84922,"adult",6,3,1,0,3,0,1,0,80
"C106540",19,"7/30/99","Female","English","dynamic","audio-keyboard-response",16,"sound/1star.wav",1263,NA,1,14,NA,NA,87126,"adult",6,6,0,1,6,0,1,0,80
"C106540",19,"7/30/99","Female","English","dynamic","audio-keyboard-response",18,"sound/6star.wav",1263,NA,6,20,NA,NA,89140,"adult",6,6,1,0,1,0,1,0,80
"C106540",19,"7/30/99","Female","English","dynamic","audio-keyboard-response",20,"sound/6star.wav",1263,NA,6,26,NA,NA,92215,"adult",6,6,1,0,6,1,0,0,80
"C106540",19,"7/30/99","Female","English","dynamic","audio-keyboard-response",22,"sound/6star.wav",1263,NA,6,32,NA,NA,94506,"adult",6,6,1,0,6,1,0,0,80
"C106540",19,"7/30/99","Female","English","dynamic","audio-keyboard-response",24,"sound/6star.wav",1263,NA,6,38,NA,NA,96942,"adult",6,6,1,0,6,1,0,0,80
"C106540",19,"7/30/99","Female","English","dynamic","audio-keyboard-response",26,"sound/6star.wav",1263,NA,6,44,NA,NA,99500,"adult",6,6,1,0,6,1,0,0,80
"C106540",19,"7/30/99","Female","English","dynamic","audio-keyboard-response",28,"sound/6star.wav",1263,NA,6,50,NA,NA,102071,"adult",6,6,1,0,6,1,0,0,80
"C106540",19,"7/30/99","Female","English","dynamic","audio-keyboard-response",30,"sound/6star.wav",1263,NA,6,56,NA,NA,104998,"adult",6,6,1,0,6,1,0,0,80
"C106540",19,"7/30/99","Female","English","dynamic","audio-keyboard-response",32,"sound/6star.wav",1263,NA,6,62,NA,NA,108387,"adult",6,6,1,0,6,1,0,0,80
"C106540",19,"7/30/99","Female","English","dynamic","audio-keyboard-response",34,"sound/6star.wav",1263,NA,6,68,NA,NA,111181,"adult",6,6,1,0,6,1,0,0,80
"C106540",19,"7/30/99","Female","English","dynamic","audio-keyboard-response",36,"sound/6star.wav",1263,NA,6,74,NA,NA,115038,"adult",6,6,1,0,6,1,0,0,80
"C106540",19,"7/30/99","Female","English","dynamic","audio-keyboard-response",38,"sound/6star.wav",1263,NA,6,80,NA,NA,117802,"adult",6,6,1,0,6,1,0,0,80
"C106540",19,"7/30/99","Female","English","dynamic","audio-keyboard-response",40,"sound/6star.wav",1263,NA,6,86,NA,NA,120185,"adult",6,6,1,0,6,1,0,0,80
"C106540",19,"7/30/99","Female","English","dynamic","audio-keyboard-response",42,"sound/6star.wav",1263,NA,6,92,NA,NA,122477,"adult",6,6,1,0,6,1,0,0,80
"C106540",19,"7/30/99","Female","English","dynamic","audio-keyboard-response",44,"sound/6star.wav",1263,NA,6,98,NA,NA,125079,"adult",6,6,1,0,6,1,0,0,80
"C106540",19,"7/30/99","Female","English","dynamic","audio-keyboard-response",46,"sound/6star.wav",1263,NA,6,104,NA,NA,128154,"adult",6,6,1,0,6,1,0,0,80
"C106540",19,"7/30/99","Female","English","dynamic","audio-keyboard-response",48,"sound/6star.wav",1263,NA,6,110,NA,NA,130883,"adult",6,6,1,0,6,1,0,0,80
"C106540",19,"7/30/99","Female","English","dynamic","audio-keyboard-response",50,"sound/6star.wav",1263,NA,6,116,NA,NA,133488,"adult",6,6,1,0,6,1,0,0,80
"C106540",19,"7/30/99","Female","English","dynamic","audio-keyboard-response",52,"sound/6star.wav",1263,NA,6,122,NA,NA,136395,"adult",6,6,1,0,6,1,0,0,80
"C106540",19,"7/30/99","Female","English","dynamic","audio-keyboard-response",54,"sound/6star.wav",1263,NA,6,128,NA,NA,138040,"adult",6,6,1,0,6,1,0,0,80
"C106540",19,"7/30/99","Female","English","dynamic","audio-keyboard-response",56,"sound/6star.wav",1263,NA,6,134,NA,NA,141938,"adult",6,6,1,0,6,1,0,0,80
"C106540",19,"7/30/99","Female","English","dynamic","audio-keyboard-response",58,"sound/6star.wav",1263,NA,6,140,NA,NA,144229,"adult",6,6,1,0,6,1,0,0,80
"C106540",19,"7/30/99","Female","English","dynamic","audio-keyboard-response",60,"sound/6star.wav",1263,NA,6,146,NA,NA,147034,"adult",6,6,1,0,6,1,0,0,80
"C106540",19,"7/30/99","Female","English","dynamic","audio-keyboard-response",62,"sound/6star.wav",1263,NA,6,152,NA,NA,149612,"adult",6,6,1,0,6,1,0,0,80
"C106540",19,"7/30/99","Female","English","dynamic","audio-keyboard-response",64,"sound/6star.wav",1263,NA,6,158,NA,NA,152307,"adult",6,6,1,0,6,1,0,0,80
"C106540",19,"7/30/99","Female","English","dynamic","audio-keyboard-response",66,"sound/6star.wav",1263,NA,6,164,NA,NA,155699,"adult",6,6,1,0,6,1,0,0,80
"C106540",19,"7/30/99","Female","English","dynamic","audio-keyboard-response",68,"sound/6star.wav",1263,NA,6,170,NA,NA,162050,"adult",6,6,1,0,6,1,0,0,80
"C106540",19,"7/30/99","Female","English","dynamic","audio-keyboard-response",70,"sound/6star.wav",1263,NA,6,176,NA,NA,166131,"adult",6,6,1,0,6,1,0,0,80
"C106540",19,"7/30/99","Female","English","dynamic","audio-keyboard-response",72,"sound/6star.wav",1263,NA,6,182,NA,NA,168683,"adult",6,6,1,0,6,1,0,0,80
"C106540",19,"7/30/99","Female","English","dynamic","audio-keyboard-response",74,"sound/6star.wav",1263,NA,6,188,NA,NA,175934,"adult",6,6,1,0,6,1,0,0,80
"C106540",19,"7/30/99","Female","English","dynamic","audio-keyboard-response",76,"sound/6star.wav",1263,NA,6,194,NA,NA,182462,"adult",6,6,1,0,6,1,0,0,80
"C106540",19,"7/30/99","Female","English","dynamic","audio-keyboard-response",78,"sound/6star.wav",1263,NA,6,200,NA,NA,185416,"adult",6,6,1,0,6,1,0,0,80
"C106540",19,"7/30/99","Female","English","dynamic","audio-keyboard-response",80,"sound/2star.wav",1263,NA,2,202,NA,NA,187174,"adult",6,6,0,1,6,0,1,0,80
"C106540",19,"7/30/99","Female","English","dynamic","audio-keyboard-response",82,"sound/6star.wav",1263,NA,6,208,NA,NA,191916,"adult",6,6,1,0,2,0,1,0,80
"C106540",19,"7/30/99","Female","English","dynamic","audio-keyboard-response",84,"sound/6star.wav",1263,NA,6,214,NA,NA,197183,"adult",6,6,1,0,6,1,0,0,80
"C106540",19,"7/30/99","Female","English","dynamic","audio-keyboard-response",86,"sound/6star.wav",1263,NA,6,220,NA,NA,199615,"adult",6,6,1,0,6,1,0,0,80
"C106540",19,"7/30/99","Female","English","dynamic","audio-keyboard-response",88,"sound/6star.wav",1263,NA,6,226,NA,NA,202462,"adult",6,6,1,0,6,1,0,0,80
"C106540",19,"7/30/99","Female","English","dynamic","audio-keyboard-response",90,"sound/6star.wav",1263,NA,6,232,NA,NA,206049,"adult",6,6,1,0,6,1,0,0,80
"C106540",19,"7/30/99","Female","English","dynamic","audio-keyboard-response",92,"sound/6star.wav",1263,NA,6,238,NA,NA,209353,"adult",6,6,1,0,6,1,0,0,80
"C106540",19,"7/30/99","Female","English","dynamic","audio-keyboard-response",94,"sound/6star.wav",1263,NA,6,244,NA,NA,214513,"adult",6,6,1,0,6,1,0,0,80
"C106540",19,"7/30/99","Female","English","dynamic","audio-keyboard-response",96,"sound/6star.wav",1263,NA,6,250,NA,NA,226439,"adult",6,6,1,0,6,1,0,0,80
"C106540",19,"7/30/99","Female","English","dynamic","audio-keyboard-response",98,"sound/6star.wav",1263,NA,6,256,NA,NA,234024,"adult",6,6,1,0,6,1,0,0,80
"C106540",19,"7/30/99","Female","English","dynamic","audio-keyboard-response",100,"sound/6star.wav",1263,NA,6,262,NA,NA,241754,"adult",6,6,1,0,6,1,0,0,80
"C106540",19,"7/30/99","Female","English","dynamic","audio-keyboard-response",102,"sound/6star.wav",1263,NA,6,268,NA,NA,248381,"adult",6,6,1,0,6,1,0,0,80
"C106540",19,"7/30/99","Female","English","dynamic","audio-keyboard-response",104,"sound/6star.wav",1263,NA,6,274,NA,NA,250811,"adult",6,6,1,0,6,1,0,0,80
"C106540",19,"7/30/99","Female","English","dynamic","audio-keyboard-response",106,"sound/6star.wav",1263,NA,6,280,NA,NA,255959,"adult",6,6,1,0,6,1,0,0,80
"C106540",19,"7/30/99","Female","English","dynamic","audio-keyboard-response",108,"sound/6star.wav",1263,NA,6,286,NA,NA,259226,"adult",6,6,1,0,6,1,0,0,80
"C106540",19,"7/30/99","Female","English","dynamic","audio-keyboard-response",110,"sound/6star.wav",1263,NA,6,292,NA,NA,264403,"adult",6,6,1,0,6,1,0,0,80
"C106540",19,"7/30/99","Female","English","dynamic","audio-keyboard-response",112,"sound/6star.wav",1263,NA,6,298,NA,NA,269263,"adult",6,6,1,0,6,1,0,0,80
"C106540",19,"7/30/99","Female","English","dynamic","audio-keyboard-response",114,"sound/6star.wav",1263,NA,6,304,NA,NA,275827,"adult",6,6,1,0,6,1,0,0,80
"C106540",19,"7/30/99","Female","English","dynamic","audio-keyboard-response",116,"sound/6star.wav",1263,NA,6,310,NA,NA,279151,"adult",6,6,1,0,6,1,0,0,80
"C106540",19,"7/30/99","Female","English","dynamic","audio-keyboard-response",118,"sound/6star.wav",1263,NA,6,316,NA,NA,283706,"adult",6,6,1,0,6,1,0,0,80
"C106540",19,"7/30/99","Female","English","dynamic","audio-keyboard-response",120,"sound/6star.wav",1263,NA,6,322,NA,NA,288682,"adult",6,6,1,0,6,1,0,0,80
"C106540",19,"7/30/99","Female","English","dynamic","audio-keyboard-response",122,"sound/6star.wav",1263,NA,6,328,NA,NA,293211,"adult",6,6,1,0,6,1,0,0,80
"C106540",19,"7/30/99","Female","English","dynamic","audio-keyboard-response",124,"sound/6star.wav",1263,NA,6,334,NA,NA,299230,"adult",6,6,1,0,6,1,0,0,80
"C106540",19,"7/30/99","Female","English","dynamic","audio-keyboard-response",126,"sound/6star.wav",1263,NA,6,340,NA,NA,304449,"adult",6,6,1,0,6,1,0,0,80
"C106540",19,"7/30/99","Female","English","dynamic","audio-keyboard-response",128,"sound/6star.wav",1263,NA,6,346,NA,NA,307760,"adult",6,6,1,0,6,1,0,0,80
"C106540",19,"7/30/99","Female","English","dynamic","audio-keyboard-response",130,"sound/6star.wav",1263,NA,6,352,NA,NA,310519,"adult",6,6,1,0,6,1,0,0,80
"C106540",19,"7/30/99","Female","English","dynamic","audio-keyboard-response",132,"sound/2star.wav",1263,NA,2,354,NA,NA,314109,"adult",6,6,0,1,6,0,1,0,80
"C106540",19,"7/30/99","Female","English","dynamic","audio-keyboard-response",134,"sound/3star.wav",1263,NA,3,357,NA,NA,316677,"adult",6,6,0,1,2,0,1,0,80
"C106540",19,"7/30/99","Female","English","dynamic","audio-keyboard-response",136,"sound/6star.wav",1263,NA,6,363,NA,NA,319580,"adult",6,6,1,0,3,0,1,0,80
"C106540",19,"7/30/99","Female","English","dynamic","audio-keyboard-response",138,"sound/6star.wav",1263,NA,6,369,NA,NA,322855,"adult",6,6,1,0,6,1,0,0,80
"C106540",19,"7/30/99","Female","English","dynamic","audio-keyboard-response",140,"sound/6star.wav",1263,NA,6,375,NA,NA,327490,"adult",6,6,1,0,6,1,0,0,80
"C106540",19,"7/30/99","Female","English","dynamic","audio-keyboard-response",142,"sound/6star.wav",1263,NA,6,381,NA,NA,332383,"adult",6,6,1,0,6,1,0,0,80
"C106540",19,"7/30/99","Female","English","dynamic","audio-keyboard-response",144,"sound/6star.wav",1263,NA,6,387,NA,NA,335309,"adult",6,6,1,0,6,1,0,0,80
"C106540",19,"7/30/99","Female","English","dynamic","audio-keyboard-response",146,"sound/6star.wav",1263,NA,6,393,NA,NA,340693,"adult",6,6,1,0,6,1,0,0,80
"C106540",19,"7/30/99","Female","English","dynamic","audio-keyboard-response",148,"sound/6star.wav",1263,NA,6,399,NA,NA,343743,"adult",6,6,1,0,6,1,0,0,80
"C106540",19,"7/30/99","Female","English","dynamic","audio-keyboard-response",150,"sound/6star.wav",1263,NA,6,405,NA,NA,346412,"adult",6,6,1,0,6,1,0,0,80
"C106540",19,"7/30/99","Female","English","dynamic","audio-keyboard-response",152,"sound/6star.wav",1263,NA,6,411,NA,NA,350493,"adult",6,6,1,0,6,1,0,0,80
"C106540",19,"7/30/99","Female","English","dynamic","audio-keyboard-response",154,"sound/6star.wav",1263,NA,6,417,NA,NA,353833,"adult",6,6,1,0,6,1,0,0,80
"C106540",19,"7/30/99","Female","English","dynamic","audio-keyboard-response",156,"sound/6star.wav",1263,NA,6,423,NA,NA,358036,"adult",6,6,1,0,6,1,0,0,80
"C106540",19,"7/30/99","Female","English","dynamic","audio-keyboard-response",158,"sound/6star.wav",1263,NA,6,429,NA,NA,360218,"adult",6,6,1,0,6,1,0,0,80
"C106540",19,"7/30/99","Female","English","dynamic","audio-keyboard-response",160,"sound/6star.wav",1263,NA,6,435,NA,NA,365415,"adult",6,6,1,0,6,1,0,0,80
"C106540",19,"7/30/99","Female","English","dynamic","audio-keyboard-response",162,"sound/6star.wav",1263,NA,6,441,NA,NA,371127,"adult",6,6,1,0,6,1,0,0,80
"C106540",19,"7/30/99","Female","English","dynamic","audio-keyboard-response",164,"sound/6star.wav",1263,NA,6,447,NA,NA,374153,"adult",6,6,1,0,6,1,0,0,80
"C106540",19,"7/30/99","Female","English","dynamic","audio-keyboard-response",166,"sound/6star.wav",1263,NA,6,453,NA,NA,377773,"adult",6,6,1,0,6,1,0,0,80
"C108472",27,"10/24/91","Male","English","dynamic","audio-keyboard-response",8,"sound/2star.wav",3621,NA,2,2,NA,NA,64514,"adult",2,NA,1,0,NA,NA,NA,0,80
"C108472",27,"10/24/91","Male","English","dynamic","audio-keyboard-response",10,"sound/1star.wav",3621,NA,1,3,NA,NA,67404,"adult",2,2,0,1,2,0,1,0,80
"C108472",27,"10/24/91","Male","English","dynamic","audio-keyboard-response",12,"sound/6star.wav",3621,NA,6,9,NA,NA,69565,"adult",6,2,1,0,1,0,1,0,80
"C108472",27,"10/24/91","Male","English","dynamic","audio-keyboard-response",14,"sound/6star.wav",3621,NA,6,15,NA,NA,71956,"adult",6,6,1,0,6,1,0,0,80
"C108472",27,"10/24/91","Male","English","dynamic","audio-keyboard-response",16,"sound/6star.wav",3621,NA,6,21,NA,NA,73825,"adult",6,6,1,0,6,1,0,0,80
"C108472",27,"10/24/91","Male","English","dynamic","audio-keyboard-response",18,"sound/6star.wav",3621,NA,6,27,NA,NA,75896,"adult",6,6,1,0,6,1,0,0,80
"C108472",27,"10/24/91","Male","English","dynamic","audio-keyboard-response",20,"sound/6star.wav",3621,NA,6,33,NA,NA,77795,"adult",6,6,1,0,6,1,0,0,80
"C108472",27,"10/24/91","Male","English","dynamic","audio-keyboard-response",22,"sound/6star.wav",3621,NA,6,39,NA,NA,79855,"adult",6,6,1,0,6,1,0,0,80
"C108472",27,"10/24/91","Male","English","dynamic","audio-keyboard-response",24,"sound/6star.wav",3621,NA,6,45,NA,NA,82200,"adult",6,6,1,0,6,1,0,0,80
"C108472",27,"10/24/91","Male","English","dynamic","audio-keyboard-response",26,"sound/6star.wav",3621,NA,6,51,NA,NA,84155,"adult",6,6,1,0,6,1,0,0,80
"C108472",27,"10/24/91","Male","English","dynamic","audio-keyboard-response",28,"sound/6star.wav",3621,NA,6,57,NA,NA,86226,"adult",6,6,1,0,6,1,0,0,80
"C108472",27,"10/24/91","Male","English","dynamic","audio-keyboard-response",30,"sound/6star.wav",3621,NA,6,63,NA,NA,88305,"adult",6,6,1,0,6,1,0,0,80
"C108472",27,"10/24/91","Male","English","dynamic","audio-keyboard-response",32,"sound/6star.wav",3621,NA,6,69,NA,NA,90166,"adult",6,6,1,0,6,1,0,0,80
"C108472",27,"10/24/91","Male","English","dynamic","audio-keyboard-response",34,"sound/3star.wav",3621,NA,3,72,NA,NA,92065,"adult",6,6,0,1,6,0,1,0,80
"C108472",27,"10/24/91","Male","English","dynamic","audio-keyboard-response",36,"sound/6star.wav",3621,NA,6,78,NA,NA,93950,"adult",6,6,1,0,3,0,1,0,80
"C108472",27,"10/24/91","Male","English","dynamic","audio-keyboard-response",38,"sound/6star.wav",3621,NA,6,84,NA,NA,95715,"adult",6,6,1,0,6,1,0,0,80
"C108472",27,"10/24/91","Male","English","dynamic","audio-keyboard-response",40,"sound/6star.wav",3621,NA,6,90,NA,NA,97695,"adult",6,6,1,0,6,1,0,0,80
"C108472",27,"10/24/91","Male","English","dynamic","audio-keyboard-response",42,"sound/6star.wav",3621,NA,6,96,NA,NA,99705,"adult",6,6,1,0,6,1,0,0,80
"C108472",27,"10/24/91","Male","English","dynamic","audio-keyboard-response",44,"sound/6star.wav",3621,NA,6,102,NA,NA,101746,"adult",6,6,1,0,6,1,0,0,80
"C108472",27,"10/24/91","Male","English","dynamic","audio-keyboard-response",46,"sound/6star.wav",3621,NA,6,108,NA,NA,103787,"adult",6,6,1,0,6,1,0,0,80
"C108472",27,"10/24/91","Male","English","dynamic","audio-keyboard-response",48,"sound/6star.wav",3621,NA,6,114,NA,NA,105913,"adult",6,6,1,0,6,1,0,0,80
"C108472",27,"10/24/91","Male","English","dynamic","audio-keyboard-response",50,"sound/6star.wav",3621,NA,6,120,NA,NA,107705,"adult",6,6,1,0,6,1,0,0,80
"C108472",27,"10/24/91","Male","English","dynamic","audio-keyboard-response",52,"sound/6star.wav",3621,NA,6,126,NA,NA,109372,"adult",6,6,1,0,6,1,0,0,80
"C108472",27,"10/24/91","Male","English","dynamic","audio-keyboard-response",54,"sound/6star.wav",3621,NA,6,132,NA,NA,111001,"adult",6,6,1,0,6,1,0,0,80
"C108472",27,"10/24/91","Male","English","dynamic","audio-keyboard-response",56,"sound/6star.wav",3621,NA,6,138,NA,NA,112925,"adult",6,6,1,0,6,1,0,0,80
"C108472",27,"10/24/91","Male","English","dynamic","audio-keyboard-response",58,"sound/6star.wav",3621,NA,6,144,NA,NA,114745,"adult",6,6,1,0,6,1,0,0,80
"C108472",27,"10/24/91","Male","English","dynamic","audio-keyboard-response",60,"sound/6star.wav",3621,NA,6,150,NA,NA,116667,"adult",6,6,1,0,6,1,0,0,80
"C108472",27,"10/24/91","Male","English","dynamic","audio-keyboard-response",62,"sound/6star.wav",3621,NA,6,156,NA,NA,118493,"adult",6,6,1,0,6,1,0,0,80
"C108472",27,"10/24/91","Male","English","dynamic","audio-keyboard-response",64,"sound/6star.wav",3621,NA,6,162,NA,NA,120436,"adult",6,6,1,0,6,1,0,0,80
"C108472",27,"10/24/91","Male","English","dynamic","audio-keyboard-response",66,"sound/6star.wav",3621,NA,6,168,NA,NA,122395,"adult",6,6,1,0,6,1,0,0,80
"C108472",27,"10/24/91","Male","English","dynamic","audio-keyboard-response",68,"sound/6star.wav",3621,NA,6,174,NA,NA,124295,"adult",6,6,1,0,6,1,0,0,80
"C108472",27,"10/24/91","Male","English","dynamic","audio-keyboard-response",70,"sound/6star.wav",3621,NA,6,180,NA,NA,126135,"adult",6,6,1,0,6,1,0,0,80
"C108472",27,"10/24/91","Male","English","dynamic","audio-keyboard-response",72,"sound/6star.wav",3621,NA,6,186,NA,NA,127975,"adult",6,6,1,0,6,1,0,0,80
"C108472",27,"10/24/91","Male","English","dynamic","audio-keyboard-response",74,"sound/6star.wav",3621,NA,6,192,NA,NA,129915,"adult",6,6,1,0,6,1,0,0,80
"C108472",27,"10/24/91","Male","English","dynamic","audio-keyboard-response",76,"sound/6star.wav",3621,NA,6,198,NA,NA,131845,"adult",6,6,1,0,6,1,0,0,80
"C108472",27,"10/24/91","Male","English","dynamic","audio-keyboard-response",78,"sound/6star.wav",3621,NA,6,204,NA,NA,133735,"adult",6,6,1,0,6,1,0,0,80
"C108472",27,"10/24/91","Male","English","dynamic","audio-keyboard-response",80,"sound/6star.wav",3621,NA,6,210,NA,NA,135523,"adult",6,6,1,0,6,1,0,0,80
"C108472",27,"10/24/91","Male","English","dynamic","audio-keyboard-response",82,"sound/6star.wav",3621,NA,6,216,NA,NA,137313,"adult",6,6,1,0,6,1,0,0,80
"C108472",27,"10/24/91","Male","English","dynamic","audio-keyboard-response",84,"sound/6star.wav",3621,NA,6,222,NA,NA,139438,"adult",6,6,1,0,6,1,0,0,80
"C108472",27,"10/24/91","Male","English","dynamic","audio-keyboard-response",86,"sound/6star.wav",3621,NA,6,228,NA,NA,141383,"adult",6,6,1,0,6,1,0,0,80
"C108472",27,"10/24/91","Male","English","dynamic","audio-keyboard-response",88,"sound/6star.wav",3621,NA,6,234,NA,NA,143373,"adult",6,6,1,0,6,1,0,0,80
"C108472",27,"10/24/91","Male","English","dynamic","audio-keyboard-response",90,"sound/6star.wav",3621,NA,6,240,NA,NA,145293,"adult",6,6,1,0,6,1,0,0,80
"C108472",27,"10/24/91","Male","English","dynamic","audio-keyboard-response",92,"sound/6star.wav",3621,NA,6,246,NA,NA,147243,"adult",6,6,1,0,6,1,0,0,80
"C108472",27,"10/24/91","Male","English","dynamic","audio-keyboard-response",94,"sound/6star.wav",3621,NA,6,252,NA,NA,149133,"adult",6,6,1,0,6,1,0,0,80
"C108472",27,"10/24/91","Male","English","dynamic","audio-keyboard-response",96,"sound/6star.wav",3621,NA,6,258,NA,NA,151043,"adult",6,6,1,0,6,1,0,0,80
"C108472",27,"10/24/91","Male","English","dynamic","audio-keyboard-response",98,"sound/6star.wav",3621,NA,6,264,NA,NA,152916,"adult",6,6,1,0,6,1,0,0,80
"C108472",27,"10/24/91","Male","English","dynamic","audio-keyboard-response",100,"sound/6star.wav",3621,NA,6,270,NA,NA,154953,"adult",6,6,1,0,6,1,0,0,80
"C108472",27,"10/24/91","Male","English","dynamic","audio-keyboard-response",102,"sound/6star.wav",3621,NA,6,276,NA,NA,156803,"adult",6,6,1,0,6,1,0,0,80
"C108472",27,"10/24/91","Male","English","dynamic","audio-keyboard-response",104,"sound/6star.wav",3621,NA,6,282,NA,NA,158653,"adult",6,6,1,0,6,1,0,0,80
"C108472",27,"10/24/91","Male","English","dynamic","audio-keyboard-response",106,"sound/6star.wav",3621,NA,6,288,NA,NA,160564,"adult",6,6,1,0,6,1,0,0,80
"C108472",27,"10/24/91","Male","English","dynamic","audio-keyboard-response",108,"sound/6star.wav",3621,NA,6,294,NA,NA,162756,"adult",6,6,1,0,6,1,0,0,80
"C108472",27,"10/24/91","Male","English","dynamic","audio-keyboard-response",110,"sound/6star.wav",3621,NA,6,300,NA,NA,164695,"adult",6,6,1,0,6,1,0,0,80
"C108472",27,"10/24/91","Male","English","dynamic","audio-keyboard-response",112,"sound/6star.wav",3621,NA,6,306,NA,NA,166634,"adult",6,6,1,0,6,1,0,0,80
"C108472",27,"10/24/91","Male","English","dynamic","audio-keyboard-response",114,"sound/6star.wav",3621,NA,6,312,NA,NA,168673,"adult",6,6,1,0,6,1,0,0,80
"C108472",27,"10/24/91","Male","English","dynamic","audio-keyboard-response",116,"sound/6star.wav",3621,NA,6,318,NA,NA,170533,"adult",6,6,1,0,6,1,0,0,80
"C108472",27,"10/24/91","Male","English","dynamic","audio-keyboard-response",118,"sound/6star.wav",3621,NA,6,324,NA,NA,172353,"adult",6,6,1,0,6,1,0,0,80
"C108472",27,"10/24/91","Male","English","dynamic","audio-keyboard-response",120,"sound/6star.wav",3621,NA,6,330,NA,NA,174153,"adult",6,6,1,0,6,1,0,0,80
"C108472",27,"10/24/91","Male","English","dynamic","audio-keyboard-response",122,"sound/6star.wav",3621,NA,6,336,NA,NA,175893,"adult",6,6,1,0,6,1,0,0,80
"C108472",27,"10/24/91","Male","English","dynamic","audio-keyboard-response",124,"sound/6star.wav",3621,NA,6,342,NA,NA,177583,"adult",6,6,1,0,6,1,0,0,80
"C108472",27,"10/24/91","Male","English","dynamic","audio-keyboard-response",126,"sound/6star.wav",3621,NA,6,348,NA,NA,179236,"adult",6,6,1,0,6,1,0,0,80
"C108472",27,"10/24/91","Male","English","dynamic","audio-keyboard-response",128,"sound/6star.wav",3621,NA,6,354,NA,NA,180995,"adult",6,6,1,0,6,1,0,0,80
"C108472",27,"10/24/91","Male","English","dynamic","audio-keyboard-response",130,"sound/6star.wav",3621,NA,6,360,NA,NA,182805,"adult",6,6,1,0,6,1,0,0,80
"C108472",27,"10/24/91","Male","English","dynamic","audio-keyboard-response",132,"sound/6star.wav",3621,NA,6,366,NA,NA,184516,"adult",6,6,1,0,6,1,0,0,80
"C108472",27,"10/24/91","Male","English","dynamic","audio-keyboard-response",134,"sound/6star.wav",3621,NA,6,372,NA,NA,186355,"adult",6,6,1,0,6,1,0,0,80
"C108472",27,"10/24/91","Male","English","dynamic","audio-keyboard-response",136,"sound/6star.wav",3621,NA,6,378,NA,NA,188157,"adult",6,6,1,0,6,1,0,0,80
"C108472",27,"10/24/91","Male","English","dynamic","audio-keyboard-response",138,"sound/6star.wav",3621,NA,6,384,NA,NA,190186,"adult",6,6,1,0,6,1,0,0,80
"C108472",27,"10/24/91","Male","English","dynamic","audio-keyboard-response",140,"sound/6star.wav",3621,NA,6,390,NA,NA,191902,"adult",6,6,1,0,6,1,0,0,80
"C108472",27,"10/24/91","Male","English","dynamic","audio-keyboard-response",142,"sound/6star.wav",3621,NA,6,396,NA,NA,193626,"adult",6,6,1,0,6,1,0,0,80
"C108472",27,"10/24/91","Male","English","dynamic","audio-keyboard-response",144,"sound/6star.wav",3621,NA,6,402,NA,NA,195345,"adult",6,6,1,0,6,1,0,0,80
"C108472",27,"10/24/91","Male","English","dynamic","audio-keyboard-response",146,"sound/6star.wav",3621,NA,6,408,NA,NA,197158,"adult",6,6,1,0,6,1,0,0,80
"C108472",27,"10/24/91","Male","English","dynamic","audio-keyboard-response",148,"sound/6star.wav",3621,NA,6,414,NA,NA,199305,"adult",6,6,1,0,6,1,0,0,80
"C108472",27,"10/24/91","Male","English","dynamic","audio-keyboard-response",150,"sound/6star.wav",3621,NA,6,420,NA,NA,201215,"adult",6,6,1,0,6,1,0,0,80
"C108472",27,"10/24/91","Male","English","dynamic","audio-keyboard-response",152,"sound/6star.wav",3621,NA,6,426,NA,NA,203015,"adult",6,6,1,0,6,1,0,0,80
"C108472",27,"10/24/91","Male","English","dynamic","audio-keyboard-response",154,"sound/6star.wav",3621,NA,6,432,NA,NA,204975,"adult",6,6,1,0,6,1,0,0,80
"C108472",27,"10/24/91","Male","English","dynamic","audio-keyboard-response",156,"sound/6star.wav",3621,NA,6,438,NA,NA,206705,"adult",6,6,1,0,6,1,0,0,80
"C108472",27,"10/24/91","Male","English","dynamic","audio-keyboard-response",158,"sound/6star.wav",3621,NA,6,444,NA,NA,208541,"adult",6,6,1,0,6,1,0,0,80
"C108472",27,"10/24/91","Male","English","dynamic","audio-keyboard-response",160,"sound/6star.wav",3621,NA,6,450,NA,NA,210253,"adult",6,6,1,0,6,1,0,0,80
"C108472",27,"10/24/91","Male","English","dynamic","audio-keyboard-response",162,"sound/6star.wav",3621,NA,6,456,NA,NA,212055,"adult",6,6,1,0,6,1,0,0,80
"C108472",27,"10/24/91","Male","English","dynamic","audio-keyboard-response",164,"sound/6star.wav",3621,NA,6,462,NA,NA,213895,"adult",6,6,1,0,6,1,0,0,80
"C108472",27,"10/24/91","Male","English","dynamic","audio-keyboard-response",166,"sound/6star.wav",3621,NA,6,468,NA,NA,215772,"adult",6,6,1,0,6,1,0,0,80
"C114455",60,"3/25/59","Female","English","static","audio-keyboard-response",8,"sound/2star.wav",2361,NA,2,2,NA,NA,77419,"adult",2,NA,1,0,NA,NA,NA,NA,NA
"C114455",60,"3/25/59","Female","English","static","audio-keyboard-response",10,"sound/3star.wav",2361,NA,3,5,NA,NA,80850,"adult",3,2,1,0,2,0,1,NA,NA
"C114455",60,"3/25/59","Female","English","static","audio-keyboard-response",12,"sound/6star.wav",2361,NA,6,11,NA,NA,83870,"adult",6,3,1,0,3,0,1,NA,NA
"C114455",60,"3/25/59","Female","English","static","audio-keyboard-response",14,"sound/1star.wav",2361,NA,1,12,NA,NA,86690,"adult",6,6,0,1,6,0,1,NA,NA
"C114455",60,"3/25/59","Female","English","static","audio-keyboard-response",16,"sound/6star.wav",2361,NA,6,18,NA,NA,89268,"adult",6,6,1,0,1,0,1,NA,NA
"C114455",60,"3/25/59","Female","English","static","audio-keyboard-response",18,"sound/6star.wav",2361,NA,6,24,NA,NA,91810,"adult",6,6,1,0,6,1,0,NA,NA
"C114455",60,"3/25/59","Female","English","static","audio-keyboard-response",20,"sound/6star.wav",2361,NA,6,30,NA,NA,94260,"adult",6,6,1,0,6,1,0,NA,NA
"C114455",60,"3/25/59","Female","English","static","audio-keyboard-response",22,"sound/6star.wav",2361,NA,6,36,NA,NA,96590,"adult",6,6,1,0,6,1,0,NA,NA
"C114455",60,"3/25/59","Female","English","static","audio-keyboard-response",24,"sound/6star.wav",2361,NA,6,42,NA,NA,98850,"adult",6,6,1,0,6,1,0,NA,NA
"C114455",60,"3/25/59","Female","English","static","audio-keyboard-response",26,"sound/6star.wav",2361,NA,6,48,NA,NA,101190,"adult",6,6,1,0,6,1,0,NA,NA
"C114455",60,"3/25/59","Female","English","static","audio-keyboard-response",28,"sound/6star.wav",2361,NA,6,54,NA,NA,103370,"adult",6,6,1,0,6,1,0,NA,NA
"C114455",60,"3/25/59","Female","English","static","audio-keyboard-response",30,"sound/6star.wav",2361,NA,6,60,NA,NA,105422,"adult",6,6,1,0,6,1,0,NA,NA
"C114455",60,"3/25/59","Female","English","static","audio-keyboard-response",32,"sound/6star.wav",2361,NA,6,66,NA,NA,107485,"adult",6,6,1,0,6,1,0,NA,NA
"C114455",60,"3/25/59","Female","English","static","audio-keyboard-response",34,"sound/6star.wav",2361,NA,6,72,NA,NA,109560,"adult",6,6,1,0,6,1,0,NA,NA
"C114455",60,"3/25/59","Female","English","static","audio-keyboard-response",36,"sound/6star.wav",2361,NA,6,78,NA,NA,111800,"adult",6,6,1,0,6,1,0,NA,NA
"C114455",60,"3/25/59","Female","English","static","audio-keyboard-response",38,"sound/6star.wav",2361,NA,6,84,NA,NA,114141,"adult",6,6,1,0,6,1,0,NA,NA
"C114455",60,"3/25/59","Female","English","static","audio-keyboard-response",40,"sound/6star.wav",2361,NA,6,90,NA,NA,116418,"adult",6,6,1,0,6,1,0,NA,NA
"C114455",60,"3/25/59","Female","English","static","audio-keyboard-response",42,"sound/6star.wav",2361,NA,6,96,NA,NA,118580,"adult",6,6,1,0,6,1,0,NA,NA
"C114455",60,"3/25/59","Female","English","static","audio-keyboard-response",44,"sound/6star.wav",2361,NA,6,102,NA,NA,120612,"adult",6,6,1,0,6,1,0,NA,NA
"C114455",60,"3/25/59","Female","English","static","audio-keyboard-response",46,"sound/6star.wav",2361,NA,6,108,NA,NA,122730,"adult",6,6,1,0,6,1,0,NA,NA
"C114455",60,"3/25/59","Female","English","static","audio-keyboard-response",48,"sound/6star.wav",2361,NA,6,114,NA,NA,124781,"adult",6,6,1,0,6,1,0,NA,NA
"C114455",60,"3/25/59","Female","English","static","audio-keyboard-response",50,"sound/6star.wav",2361,NA,6,120,NA,NA,126853,"adult",6,6,1,0,6,1,0,NA,NA
"C114455",60,"3/25/59","Female","English","static","audio-keyboard-response",52,"sound/6star.wav",2361,NA,6,126,NA,NA,128930,"adult",6,6,1,0,6,1,0,NA,NA
"C114455",60,"3/25/59","Female","English","static","audio-keyboard-response",54,"sound/6star.wav",2361,NA,6,132,NA,NA,131030,"adult",6,6,1,0,6,1,0,NA,NA
"C114455",60,"3/25/59","Female","English","static","audio-keyboard-response",56,"sound/6star.wav",2361,NA,6,138,NA,NA,133070,"adult",6,6,1,0,6,1,0,NA,NA
"C114455",60,"3/25/59","Female","English","static","audio-keyboard-response",58,"sound/6star.wav",2361,NA,6,144,NA,NA,135152,"adult",6,6,1,0,6,1,0,NA,NA
"C114455",60,"3/25/59","Female","English","static","audio-keyboard-response",60,"sound/6star.wav",2361,NA,6,150,NA,NA,137268,"adult",6,6,1,0,6,1,0,NA,NA
"C114455",60,"3/25/59","Female","English","static","audio-keyboard-response",62,"sound/6star.wav",2361,NA,6,156,NA,NA,139402,"adult",6,6,1,0,6,1,0,NA,NA
"C114455",60,"3/25/59","Female","English","static","audio-keyboard-response",64,"sound/6star.wav",2361,NA,6,162,NA,NA,141560,"adult",6,6,1,0,6,1,0,NA,NA
"C114455",60,"3/25/59","Female","English","static","audio-keyboard-response",66,"sound/6star.wav",2361,NA,6,168,NA,NA,143631,"adult",6,6,1,0,6,1,0,NA,NA
"C114455",60,"3/25/59","Female","English","static","audio-keyboard-response",68,"sound/6star.wav",2361,NA,6,174,NA,NA,145758,"adult",6,6,1,0,6,1,0,NA,NA
"C114455",60,"3/25/59","Female","English","static","audio-keyboard-response",70,"sound/6star.wav",2361,NA,6,180,NA,NA,147878,"adult",6,6,1,0,6,1,0,NA,NA
"C114455",60,"3/25/59","Female","English","static","audio-keyboard-response",72,"sound/6star.wav",2361,NA,6,186,NA,NA,149968,"adult",6,6,1,0,6,1,0,NA,NA
"C114455",60,"3/25/59","Female","English","static","audio-keyboard-response",74,"sound/6star.wav",2361,NA,6,192,NA,NA,152424,"adult",6,6,1,0,6,1,0,NA,NA
"C114455",60,"3/25/59","Female","English","static","audio-keyboard-response",76,"sound/6star.wav",2361,NA,6,198,NA,NA,154449,"adult",6,6,1,0,6,1,0,NA,NA
"C114455",60,"3/25/59","Female","English","static","audio-keyboard-response",78,"sound/6star.wav",2361,NA,6,204,NA,NA,156558,"adult",6,6,1,0,6,1,0,NA,NA
"C114455",60,"3/25/59","Female","English","static","audio-keyboard-response",80,"sound/6star.wav",2361,NA,6,210,NA,NA,158697,"adult",6,6,1,0,6,1,0,NA,NA
"C114455",60,"3/25/59","Female","English","static","audio-keyboard-response",82,"sound/6star.wav",2361,NA,6,216,NA,NA,160808,"adult",6,6,1,0,6,1,0,NA,NA
"C114455",60,"3/25/59","Female","English","static","audio-keyboard-response",84,"sound/6star.wav",2361,NA,6,222,NA,NA,162928,"adult",6,6,1,0,6,1,0,NA,NA
"C114455",60,"3/25/59","Female","English","static","audio-keyboard-response",86,"sound/6star.wav",2361,NA,6,228,NA,NA,165088,"adult",6,6,1,0,6,1,0,NA,NA
"C114455",60,"3/25/59","Female","English","static","audio-keyboard-response",88,"sound/6star.wav",2361,NA,6,234,NA,NA,167248,"adult",6,6,1,0,6,1,0,NA,NA
"C114455",60,"3/25/59","Female","English","static","audio-keyboard-response",90,"sound/6star.wav",2361,NA,6,240,NA,NA,169516,"adult",6,6,1,0,6,1,0,NA,NA
"C114455",60,"3/25/59","Female","English","static","audio-keyboard-response",92,"sound/6star.wav",2361,NA,6,246,NA,NA,171688,"adult",6,6,1,0,6,1,0,NA,NA
"C114455",60,"3/25/59","Female","English","static","audio-keyboard-response",94,"sound/6star.wav",2361,NA,6,252,NA,NA,173908,"adult",6,6,1,0,6,1,0,NA,NA
"C114455",60,"3/25/59","Female","English","static","audio-keyboard-response",96,"sound/6star.wav",2361,NA,6,258,NA,NA,176068,"adult",6,6,1,0,6,1,0,NA,NA
"C114455",60,"3/25/59","Female","English","static","audio-keyboard-response",98,"sound/6star.wav",2361,NA,6,264,NA,NA,178208,"adult",6,6,1,0,6,1,0,NA,NA
"C114455",60,"3/25/59","Female","English","static","audio-keyboard-response",100,"sound/6star.wav",2361,NA,6,270,NA,NA,180369,"adult",6,6,1,0,6,1,0,NA,NA
"C114455",60,"3/25/59","Female","English","static","audio-keyboard-response",102,"sound/6star.wav",2361,NA,6,276,NA,NA,182466,"adult",6,6,1,0,6,1,0,NA,NA
"C114455",60,"3/25/59","Female","English","static","audio-keyboard-response",104,"sound/6star.wav",2361,NA,6,282,NA,NA,184498,"adult",6,6,1,0,6,1,0,NA,NA
"C114455",60,"3/25/59","Female","English","static","audio-keyboard-response",106,"sound/6star.wav",2361,NA,6,288,NA,NA,186648,"adult",6,6,1,0,6,1,0,NA,NA
"C114455",60,"3/25/59","Female","English","static","audio-keyboard-response",108,"sound/6star.wav",2361,NA,6,294,NA,NA,188768,"adult",6,6,1,0,6,1,0,NA,NA
"C114455",60,"3/25/59","Female","English","static","audio-keyboard-response",110,"sound/6star.wav",2361,NA,6,300,NA,NA,190838,"adult",6,6,1,0,6,1,0,NA,NA
"C114455",60,"3/25/59","Female","English","static","audio-keyboard-response",112,"sound/6star.wav",2361,NA,6,306,NA,NA,192958,"adult",6,6,1,0,6,1,0,NA,NA
"C114455",60,"3/25/59","Female","English","static","audio-keyboard-response",114,"sound/6star.wav",2361,NA,6,312,NA,NA,194967,"adult",6,6,1,0,6,1,0,NA,NA
"C114455",60,"3/25/59","Female","English","static","audio-keyboard-response",116,"sound/6star.wav",2361,NA,6,318,NA,NA,197018,"adult",6,6,1,0,6,1,0,NA,NA
"C114455",60,"3/25/59","Female","English","static","audio-keyboard-response",118,"sound/6star.wav",2361,NA,6,324,NA,NA,199049,"adult",6,6,1,0,6,1,0,NA,NA
"C114455",60,"3/25/59","Female","English","static","audio-keyboard-response",120,"sound/6star.wav",2361,NA,6,330,NA,NA,201148,"adult",6,6,1,0,6,1,0,NA,NA
"C114455",60,"3/25/59","Female","English","static","audio-keyboard-response",122,"sound/6star.wav",2361,NA,6,336,NA,NA,203188,"adult",6,6,1,0,6,1,0,NA,NA
"C114455",60,"3/25/59","Female","English","static","audio-keyboard-response",124,"sound/6star.wav",2361,NA,6,342,NA,NA,205330,"adult",6,6,1,0,6,1,0,NA,NA
"C114455",60,"3/25/59","Female","English","static","audio-keyboard-response",126,"sound/6star.wav",2361,NA,6,348,NA,NA,207485,"adult",6,6,1,0,6,1,0,NA,NA
"C114455",60,"3/25/59","Female","English","static","audio-keyboard-response",128,"sound/6star.wav",2361,NA,6,354,NA,NA,209660,"adult",6,6,1,0,6,1,0,NA,NA
"C114455",60,"3/25/59","Female","English","static","audio-keyboard-response",130,"sound/6star.wav",2361,NA,6,360,NA,NA,211385,"adult",6,6,1,0,6,1,0,NA,NA
"C114455",60,"3/25/59","Female","English","static","audio-keyboard-response",132,"sound/6star.wav",2361,NA,6,366,NA,NA,213473,"adult",6,6,1,0,6,1,0,NA,NA
"C114455",60,"3/25/59","Female","English","static","audio-keyboard-response",134,"sound/6star.wav",2361,NA,6,372,NA,NA,215535,"adult",6,6,1,0,6,1,0,NA,NA
"C114455",60,"3/25/59","Female","English","static","audio-keyboard-response",136,"sound/6star.wav",2361,NA,6,378,NA,NA,217640,"adult",6,6,1,0,6,1,0,NA,NA
"C114455",60,"3/25/59","Female","English","static","audio-keyboard-response",138,"sound/6star.wav",2361,NA,6,384,NA,NA,219690,"adult",6,6,1,0,6,1,0,NA,NA
"C114455",60,"3/25/59","Female","English","static","audio-keyboard-response",140,"sound/6star.wav",2361,NA,6,390,NA,NA,221780,"adult",6,6,1,0,6,1,0,NA,NA
"C114455",60,"3/25/59","Female","English","static","audio-keyboard-response",142,"sound/6star.wav",2361,NA,6,396,NA,NA,223890,"adult",6,6,1,0,6,1,0,NA,NA
"C114455",60,"3/25/59","Female","English","static","audio-keyboard-response",144,"sound/6star.wav",2361,NA,6,402,NA,NA,226010,"adult",6,6,1,0,6,1,0,NA,NA
"C114455",60,"3/25/59","Female","English","static","audio-keyboard-response",146,"sound/6star.wav",2361,NA,6,408,NA,NA,228053,"adult",6,6,1,0,6,1,0,NA,NA
"C114455",60,"3/25/59","Female","English","static","audio-keyboard-response",148,"sound/6star.wav",2361,NA,6,414,NA,NA,230250,"adult",6,6,1,0,6,1,0,NA,NA
"C114455",60,"3/25/59","Female","English","static","audio-keyboard-response",150,"sound/6star.wav",2361,NA,6,420,NA,NA,232350,"adult",6,6,1,0,6,1,0,NA,NA
"C114455",60,"3/25/59","Female","English","static","audio-keyboard-response",152,"sound/6star.wav",2361,NA,6,426,NA,NA,234485,"adult",6,6,1,0,6,1,0,NA,NA
"C114455",60,"3/25/59","Female","English","static","audio-keyboard-response",154,"sound/6star.wav",2361,NA,6,432,NA,NA,236600,"adult",6,6,1,0,6,1,0,NA,NA
"C114455",60,"3/25/59","Female","English","static","audio-keyboard-response",156,"sound/6star.wav",2361,NA,6,438,NA,NA,238670,"adult",6,6,1,0,6,1,0,NA,NA
"C114455",60,"3/25/59","Female","English","static","audio-keyboard-response",158,"sound/6star.wav",2361,NA,6,444,NA,NA,240732,"adult",6,6,1,0,6,1,0,NA,NA
"C114455",60,"3/25/59","Female","English","static","audio-keyboard-response",160,"sound/6star.wav",2361,NA,6,450,NA,NA,242820,"adult",6,6,1,0,6,1,0,NA,NA
"C114455",60,"3/25/59","Female","English","static","audio-keyboard-response",162,"sound/6star.wav",2361,NA,6,456,NA,NA,244900,"adult",6,6,1,0,6,1,0,NA,NA
"C114455",60,"3/25/59","Female","English","static","audio-keyboard-response",164,"sound/6star.wav",2361,NA,6,462,NA,NA,246961,"adult",6,6,1,0,6,1,0,NA,NA
"C114455",60,"3/25/59","Female","English","static","audio-keyboard-response",166,"sound/6star.wav",2361,NA,6,468,NA,NA,249070,"adult",6,6,1,0,6,1,0,NA,NA
"C117906",36,"3/29/83","m","English","static","audio-keyboard-response",8,"sound/1star.wav",3216,NA,1,1,NA,NA,481408,"adult",1,NA,1,0,NA,NA,NA,NA,NA
"C117906",36,"3/29/83","m","English","static","audio-keyboard-response",10,"sound/3star.wav",3216,NA,3,4,NA,NA,483821,"adult",3,1,1,0,1,0,1,NA,NA
"C117906",36,"3/29/83","m","English","static","audio-keyboard-response",12,"sound/2star.wav",3216,NA,2,6,NA,NA,486222,"adult",3,3,0,1,3,0,1,NA,NA
"C117906",36,"3/29/83","m","English","static","audio-keyboard-response",14,"sound/6star.wav",3216,NA,6,12,NA,NA,488255,"adult",6,3,1,0,2,0,1,NA,NA
"C117906",36,"3/29/83","m","English","static","audio-keyboard-response",16,"sound/6star.wav",3216,NA,6,18,NA,NA,490549,"adult",6,6,1,0,6,1,0,NA,NA
"C117906",36,"3/29/83","m","English","static","audio-keyboard-response",18,"sound/6star.wav",3216,NA,6,24,NA,NA,492405,"adult",6,6,1,0,6,1,0,NA,NA
"C117906",36,"3/29/83","m","English","static","audio-keyboard-response",20,"sound/6star.wav",3216,NA,6,30,NA,NA,494216,"adult",6,6,1,0,6,1,0,NA,NA
"C117906",36,"3/29/83","m","English","static","audio-keyboard-response",22,"sound/6star.wav",3216,NA,6,36,NA,NA,496052,"adult",6,6,1,0,6,1,0,NA,NA
"C117906",36,"3/29/83","m","English","static","audio-keyboard-response",24,"sound/6star.wav",3216,NA,6,42,NA,NA,498141,"adult",6,6,1,0,6,1,0,NA,NA
"C117906",36,"3/29/83","m","English","static","audio-keyboard-response",26,"sound/6star.wav",3216,NA,6,48,NA,NA,500033,"adult",6,6,1,0,6,1,0,NA,NA
"C117906",36,"3/29/83","m","English","static","audio-keyboard-response",28,"sound/6star.wav",3216,NA,6,54,NA,NA,501973,"adult",6,6,1,0,6,1,0,NA,NA
"C117906",36,"3/29/83","m","English","static","audio-keyboard-response",30,"sound/6star.wav",3216,NA,6,60,NA,NA,503865,"adult",6,6,1,0,6,1,0,NA,NA
"C117906",36,"3/29/83","m","English","static","audio-keyboard-response",32,"sound/6star.wav",3216,NA,6,66,NA,NA,505726,"adult",6,6,1,0,6,1,0,NA,NA
"C117906",36,"3/29/83","m","English","static","audio-keyboard-response",34,"sound/6star.wav",3216,NA,6,72,NA,NA,507484,"adult",6,6,1,0,6,1,0,NA,NA
"C117906",36,"3/29/83","m","English","static","audio-keyboard-response",36,"sound/6star.wav",3216,NA,6,78,NA,NA,509438,"adult",6,6,1,0,6,1,0,NA,NA
"C117906",36,"3/29/83","m","English","static","audio-keyboard-response",38,"sound/6star.wav",3216,NA,6,84,NA,NA,511093,"adult",6,6,1,0,6,1,0,NA,NA
"C117906",36,"3/29/83","m","English","static","audio-keyboard-response",40,"sound/6star.wav",3216,NA,6,90,NA,NA,512884,"adult",6,6,1,0,6,1,0,NA,NA
"C117906",36,"3/29/83","m","English","static","audio-keyboard-response",42,"sound/6star.wav",3216,NA,6,96,NA,NA,514824,"adult",6,6,1,0,6,1,0,NA,NA
"C117906",36,"3/29/83","m","English","static","audio-keyboard-response",44,"sound/6star.wav",3216,NA,6,102,NA,NA,517012,"adult",6,6,1,0,6,1,0,NA,NA
"C117906",36,"3/29/83","m","English","static","audio-keyboard-response",46,"sound/6star.wav",3216,NA,6,108,NA,NA,518768,"adult",6,6,1,0,6,1,0,NA,NA
"C117906",36,"3/29/83","m","English","static","audio-keyboard-response",48,"sound/6star.wav",3216,NA,6,114,NA,NA,520567,"adult",6,6,1,0,6,1,0,NA,NA
"C117906",36,"3/29/83","m","English","static","audio-keyboard-response",50,"sound/6star.wav",3216,NA,6,120,NA,NA,522414,"adult",6,6,1,0,6,1,0,NA,NA
"C117906",36,"3/29/83","m","English","static","audio-keyboard-response",52,"sound/6star.wav",3216,NA,6,126,NA,NA,524223,"adult",6,6,1,0,6,1,0,NA,NA
"C117906",36,"3/29/83","m","English","static","audio-keyboard-response",54,"sound/6star.wav",3216,NA,6,132,NA,NA,526110,"adult",6,6,1,0,6,1,0,NA,NA
"C117906",36,"3/29/83","m","English","static","audio-keyboard-response",56,"sound/6star.wav",3216,NA,6,138,NA,NA,527994,"adult",6,6,1,0,6,1,0,NA,NA
"C117906",36,"3/29/83","m","English","static","audio-keyboard-response",58,"sound/6star.wav",3216,NA,6,144,NA,NA,529717,"adult",6,6,1,0,6,1,0,NA,NA
"C117906",36,"3/29/83","m","English","static","audio-keyboard-response",60,"sound/6star.wav",3216,NA,6,150,NA,NA,531566,"adult",6,6,1,0,6,1,0,NA,NA
"C117906",36,"3/29/83","m","English","static","audio-keyboard-response",62,"sound/6star.wav",3216,NA,6,156,NA,NA,533325,"adult",6,6,1,0,6,1,0,NA,NA
"C117906",36,"3/29/83","m","English","static","audio-keyboard-response",64,"sound/6star.wav",3216,NA,6,162,NA,NA,535090,"adult",6,6,1,0,6,1,0,NA,NA
"C117906",36,"3/29/83","m","English","static","audio-keyboard-response",66,"sound/6star.wav",3216,NA,6,168,NA,NA,536790,"adult",6,6,1,0,6,1,0,NA,NA
"C117906",36,"3/29/83","m","English","static","audio-keyboard-response",68,"sound/6star.wav",3216,NA,6,174,NA,NA,538767,"adult",6,6,1,0,6,1,0,NA,NA
"C117906",36,"3/29/83","m","English","static","audio-keyboard-response",70,"sound/6star.wav",3216,NA,6,180,NA,NA,540438,"adult",6,6,1,0,6,1,0,NA,NA
"C117906",36,"3/29/83","m","English","static","audio-keyboard-response",72,"sound/6star.wav",3216,NA,6,186,NA,NA,542278,"adult",6,6,1,0,6,1,0,NA,NA
"C117906",36,"3/29/83","m","English","static","audio-keyboard-response",74,"sound/6star.wav",3216,NA,6,192,NA,NA,544133,"adult",6,6,1,0,6,1,0,NA,NA
"C117906",36,"3/29/83","m","English","static","audio-keyboard-response",76,"sound/6star.wav",3216,NA,6,198,NA,NA,545886,"adult",6,6,1,0,6,1,0,NA,NA
"C117906",36,"3/29/83","m","English","static","audio-keyboard-response",78,"sound/6star.wav",3216,NA,6,204,NA,NA,547527,"adult",6,6,1,0,6,1,0,NA,NA
"C117906",36,"3/29/83","m","English","static","audio-keyboard-response",80,"sound/6star.wav",3216,NA,6,210,NA,NA,549685,"adult",6,6,1,0,6,1,0,NA,NA
"C117906",36,"3/29/83","m","English","static","audio-keyboard-response",82,"sound/6star.wav",3216,NA,6,216,NA,NA,551333,"adult",6,6,1,0,6,1,0,NA,NA
"C117906",36,"3/29/83","m","English","static","audio-keyboard-response",84,"sound/6star.wav",3216,NA,6,222,NA,NA,553267,"adult",6,6,1,0,6,1,0,NA,NA
"C117906",36,"3/29/83","m","English","static","audio-keyboard-response",86,"sound/6star.wav",3216,NA,6,228,NA,NA,554974,"adult",6,6,1,0,6,1,0,NA,NA
"C117906",36,"3/29/83","m","English","static","audio-keyboard-response",88,"sound/6star.wav",3216,NA,6,234,NA,NA,556798,"adult",6,6,1,0,6,1,0,NA,NA
"C117906",36,"3/29/83","m","English","static","audio-keyboard-response",90,"sound/6star.wav",3216,NA,6,240,NA,NA,558846,"adult",6,6,1,0,6,1,0,NA,NA
"C117906",36,"3/29/83","m","English","static","audio-keyboard-response",92,"sound/6star.wav",3216,NA,6,246,NA,NA,560644,"adult",6,6,1,0,6,1,0,NA,NA
"C117906",36,"3/29/83","m","English","static","audio-keyboard-response",94,"sound/6star.wav",3216,NA,6,252,NA,NA,562342,"adult",6,6,1,0,6,1,0,NA,NA
"C117906",36,"3/29/83","m","English","static","audio-keyboard-response",96,"sound/6star.wav",3216,NA,6,258,NA,NA,563967,"adult",6,6,1,0,6,1,0,NA,NA
"C117906",36,"3/29/83","m","English","static","audio-keyboard-response",98,"sound/6star.wav",3216,NA,6,264,NA,NA,565680,"adult",6,6,1,0,6,1,0,NA,NA
"C117906",36,"3/29/83","m","English","static","audio-keyboard-response",100,"sound/6star.wav",3216,NA,6,270,NA,NA,567349,"adult",6,6,1,0,6,1,0,NA,NA
"C117906",36,"3/29/83","m","English","static","audio-keyboard-response",102,"sound/6star.wav",3216,NA,6,276,NA,NA,569022,"adult",6,6,1,0,6,1,0,NA,NA
"C117906",36,"3/29/83","m","English","static","audio-keyboard-response",104,"sound/6star.wav",3216,NA,6,282,NA,NA,570805,"adult",6,6,1,0,6,1,0,NA,NA
"C117906",36,"3/29/83","m","English","static","audio-keyboard-response",106,"sound/6star.wav",3216,NA,6,288,NA,NA,572583,"adult",6,6,1,0,6,1,0,NA,NA
"C117906",36,"3/29/83","m","English","static","audio-keyboard-response",108,"sound/6star.wav",3216,NA,6,294,NA,NA,574316,"adult",6,6,1,0,6,1,0,NA,NA
"C117906",36,"3/29/83","m","English","static","audio-keyboard-response",110,"sound/6star.wav",3216,NA,6,300,NA,NA,575958,"adult",6,6,1,0,6,1,0,NA,NA
"C117906",36,"3/29/83","m","English","static","audio-keyboard-response",112,"sound/6star.wav",3216,NA,6,306,NA,NA,577728,"adult",6,6,1,0,6,1,0,NA,NA
"C117906",36,"3/29/83","m","English","static","audio-keyboard-response",114,"sound/6star.wav",3216,NA,6,312,NA,NA,579389,"adult",6,6,1,0,6,1,0,NA,NA
"C117906",36,"3/29/83","m","English","static","audio-keyboard-response",116,"sound/6star.wav",3216,NA,6,318,NA,NA,581126,"adult",6,6,1,0,6,1,0,NA,NA
"C117906",36,"3/29/83","m","English","static","audio-keyboard-response",118,"sound/6star.wav",3216,NA,6,324,NA,NA,582789,"adult",6,6,1,0,6,1,0,NA,NA
"C117906",36,"3/29/83","m","English","static","audio-keyboard-response",120,"sound/6star.wav",3216,NA,6,330,NA,NA,584533,"adult",6,6,1,0,6,1,0,NA,NA
"C117906",36,"3/29/83","m","English","static","audio-keyboard-response",122,"sound/6star.wav",3216,NA,6,336,NA,NA,586617,"adult",6,6,1,0,6,1,0,NA,NA
"C117906",36,"3/29/83","m","English","static","audio-keyboard-response",124,"sound/6star.wav",3216,NA,6,342,NA,NA,588237,"adult",6,6,1,0,6,1,0,NA,NA
"C117906",36,"3/29/83","m","English","static","audio-keyboard-response",126,"sound/6star.wav",3216,NA,6,348,NA,NA,590014,"adult",6,6,1,0,6,1,0,NA,NA
"C117906",36,"3/29/83","m","English","static","audio-keyboard-response",128,"sound/6star.wav",3216,NA,6,354,NA,NA,591748,"adult",6,6,1,0,6,1,0,NA,NA
"C117906",36,"3/29/83","m","English","static","audio-keyboard-response",130,"sound/6star.wav",3216,NA,6,360,NA,NA,593526,"adult",6,6,1,0,6,1,0,NA,NA
"C117906",36,"3/29/83","m","English","static","audio-keyboard-response",132,"sound/6star.wav",3216,NA,6,366,NA,NA,595183,"adult",6,6,1,0,6,1,0,NA,NA
"C117906",36,"3/29/83","m","English","static","audio-keyboard-response",134,"sound/6star.wav",3216,NA,6,372,NA,NA,597205,"adult",6,6,1,0,6,1,0,NA,NA
"C117906",36,"3/29/83","m","English","static","audio-keyboard-response",136,"sound/6star.wav",3216,NA,6,378,NA,NA,598864,"adult",6,6,1,0,6,1,0,NA,NA
"C117906",36,"3/29/83","m","English","static","audio-keyboard-response",138,"sound/6star.wav",3216,NA,6,384,NA,NA,600594,"adult",6,6,1,0,6,1,0,NA,NA
"C117906",36,"3/29/83","m","English","static","audio-keyboard-response",140,"sound/6star.wav",3216,NA,6,390,NA,NA,602366,"adult",6,6,1,0,6,1,0,NA,NA
"C117906",36,"3/29/83","m","English","static","audio-keyboard-response",142,"sound/6star.wav",3216,NA,6,396,NA,NA,604025,"adult",6,6,1,0,6,1,0,NA,NA
"C117906",36,"3/29/83","m","English","static","audio-keyboard-response",144,"sound/6star.wav",3216,NA,6,402,NA,NA,605719,"adult",6,6,1,0,6,1,0,NA,NA
"C117906",36,"3/29/83","m","English","static","audio-keyboard-response",146,"sound/6star.wav",3216,NA,6,408,NA,NA,607337,"adult",6,6,1,0,6,1,0,NA,NA
"C117906",36,"3/29/83","m","English","static","audio-keyboard-response",148,"sound/6star.wav",3216,NA,6,414,NA,NA,611144,"adult",6,6,1,0,6,1,0,NA,NA
"C117906",36,"3/29/83","m","English","static","audio-keyboard-response",150,"sound/6star.wav",3216,NA,6,420,NA,NA,612877,"adult",6,6,1,0,6,1,0,NA,NA
"C117906",36,"3/29/83","m","English","static","audio-keyboard-response",152,"sound/6star.wav",3216,NA,6,426,NA,NA,614604,"adult",6,6,1,0,6,1,0,NA,NA
"C117906",36,"3/29/83","m","English","static","audio-keyboard-response",154,"sound/6star.wav",3216,NA,6,432,NA,NA,616374,"adult",6,6,1,0,6,1,0,NA,NA
"C117906",36,"3/29/83","m","English","static","audio-keyboard-response",156,"sound/6star.wav",3216,NA,6,438,NA,NA,618044,"adult",6,6,1,0,6,1,0,NA,NA
"C117906",36,"3/29/83","m","English","static","audio-keyboard-response",158,"sound/6star.wav",3216,NA,6,444,NA,NA,619710,"adult",6,6,1,0,6,1,0,NA,NA
"C117906",36,"3/29/83","m","English","static","audio-keyboard-response",160,"sound/6star.wav",3216,NA,6,450,NA,NA,621749,"adult",6,6,1,0,6,1,0,NA,NA
"C117906",36,"3/29/83","m","English","static","audio-keyboard-response",162,"sound/6star.wav",3216,NA,6,456,NA,NA,623630,"adult",6,6,1,0,6,1,0,NA,NA
"C117906",36,"3/29/83","m","English","static","audio-keyboard-response",164,"sound/6star.wav",3216,NA,6,462,NA,NA,625467,"adult",6,6,1,0,6,1,0,NA,NA
"C117906",36,"3/29/83","m","English","static","audio-keyboard-response",166,"sound/6star.wav",3216,NA,6,468,NA,NA,627344,"adult",6,6,1,0,6,1,0,NA,NA
"C118442",29,"10/25/89","male","English","static","audio-keyboard-response",8,"sound/1star.wav",3612,NA,1,1,NA,NA,257301,"adult",1,NA,1,0,NA,NA,NA,NA,NA
"C118442",29,"10/25/89","male","English","static","audio-keyboard-response",10,"sound/3star.wav",3612,NA,3,4,NA,NA,262025,"adult",3,1,1,0,1,0,1,NA,NA
"C118442",29,"10/25/89","male","English","static","audio-keyboard-response",12,"sound/2star.wav",3612,NA,2,6,NA,NA,264954,"adult",3,3,0,1,3,0,1,NA,NA
"C118442",29,"10/25/89","male","English","static","audio-keyboard-response",14,"sound/6star.wav",3612,NA,6,12,NA,NA,266779,"adult",6,3,1,0,2,0,1,NA,NA
"C118442",29,"10/25/89","male","English","static","audio-keyboard-response",16,"sound/6star.wav",3612,NA,6,18,NA,NA,268916,"adult",6,6,1,0,6,1,0,NA,NA
"C118442",29,"10/25/89","male","English","static","audio-keyboard-response",18,"sound/6star.wav",3612,NA,6,24,NA,NA,270760,"adult",6,6,1,0,6,1,0,NA,NA
"C118442",29,"10/25/89","male","English","static","audio-keyboard-response",20,"sound/6star.wav",3612,NA,6,30,NA,NA,272539,"adult",6,6,1,0,6,1,0,NA,NA
"C118442",29,"10/25/89","male","English","static","audio-keyboard-response",22,"sound/6star.wav",3612,NA,6,36,NA,NA,274328,"adult",6,6,1,0,6,1,0,NA,NA
"C118442",29,"10/25/89","male","English","static","audio-keyboard-response",24,"sound/6star.wav",3612,NA,6,42,NA,NA,276312,"adult",6,6,1,0,6,1,0,NA,NA
"C118442",29,"10/25/89","male","English","static","audio-keyboard-response",26,"sound/6star.wav",3612,NA,6,48,NA,NA,278085,"adult",6,6,1,0,6,1,0,NA,NA
"C118442",29,"10/25/89","male","English","static","audio-keyboard-response",28,"sound/6star.wav",3612,NA,6,54,NA,NA,279850,"adult",6,6,1,0,6,1,0,NA,NA
"C118442",29,"10/25/89","male","English","static","audio-keyboard-response",30,"sound/6star.wav",3612,NA,6,60,NA,NA,281596,"adult",6,6,1,0,6,1,0,NA,NA
"C118442",29,"10/25/89","male","English","static","audio-keyboard-response",32,"sound/6star.wav",3612,NA,6,66,NA,NA,285008,"adult",6,6,1,0,6,1,0,NA,NA
"C118442",29,"10/25/89","male","English","static","audio-keyboard-response",34,"sound/6star.wav",3612,NA,6,72,NA,NA,287573,"adult",6,6,1,0,6,1,0,NA,NA
"C118442",29,"10/25/89","male","English","static","audio-keyboard-response",36,"sound/6star.wav",3612,NA,6,78,NA,NA,289393,"adult",6,6,1,0,6,1,0,NA,NA
"C118442",29,"10/25/89","male","English","static","audio-keyboard-response",38,"sound/6star.wav",3612,NA,6,84,NA,NA,291336,"adult",6,6,1,0,6,1,0,NA,NA
"C118442",29,"10/25/89","male","English","static","audio-keyboard-response",40,"sound/6star.wav",3612,NA,6,90,NA,NA,293212,"adult",6,6,1,0,6,1,0,NA,NA
"C118442",29,"10/25/89","male","English","static","audio-keyboard-response",42,"sound/6star.wav",3612,NA,6,96,NA,NA,295078,"adult",6,6,1,0,6,1,0,NA,NA
"C118442",29,"10/25/89","male","English","static","audio-keyboard-response",44,"sound/6star.wav",3612,NA,6,102,NA,NA,296850,"adult",6,6,1,0,6,1,0,NA,NA
"C118442",29,"10/25/89","male","English","static","audio-keyboard-response",46,"sound/6star.wav",3612,NA,6,108,NA,NA,298617,"adult",6,6,1,0,6,1,0,NA,NA
"C118442",29,"10/25/89","male","English","static","audio-keyboard-response",48,"sound/6star.wav",3612,NA,6,114,NA,NA,300380,"adult",6,6,1,0,6,1,0,NA,NA
"C118442",29,"10/25/89","male","English","static","audio-keyboard-response",50,"sound/6star.wav",3612,NA,6,120,NA,NA,302178,"adult",6,6,1,0,6,1,0,NA,NA
"C118442",29,"10/25/89","male","English","static","audio-keyboard-response",52,"sound/6star.wav",3612,NA,6,126,NA,NA,303819,"adult",6,6,1,0,6,1,0,NA,NA
"C118442",29,"10/25/89","male","English","static","audio-keyboard-response",54,"sound/6star.wav",3612,NA,6,132,NA,NA,305458,"adult",6,6,1,0,6,1,0,NA,NA
"C118442",29,"10/25/89","male","English","static","audio-keyboard-response",56,"sound/6star.wav",3612,NA,6,138,NA,NA,307125,"adult",6,6,1,0,6,1,0,NA,NA
"C118442",29,"10/25/89","male","English","static","audio-keyboard-response",58,"sound/6star.wav",3612,NA,6,144,NA,NA,308760,"adult",6,6,1,0,6,1,0,NA,NA
"C118442",29,"10/25/89","male","English","static","audio-keyboard-response",60,"sound/6star.wav",3612,NA,6,150,NA,NA,310401,"adult",6,6,1,0,6,1,0,NA,NA
"C118442",29,"10/25/89","male","English","static","audio-keyboard-response",62,"sound/6star.wav",3612,NA,6,156,NA,NA,312323,"adult",6,6,1,0,6,1,0,NA,NA
"C118442",29,"10/25/89","male","English","static","audio-keyboard-response",64,"sound/6star.wav",3612,NA,6,162,NA,NA,314219,"adult",6,6,1,0,6,1,0,NA,NA
"C118442",29,"10/25/89","male","English","static","audio-keyboard-response",66,"sound/6star.wav",3612,NA,6,168,NA,NA,315918,"adult",6,6,1,0,6,1,0,NA,NA
"C118442",29,"10/25/89","male","English","static","audio-keyboard-response",68,"sound/6star.wav",3612,NA,6,174,NA,NA,317542,"adult",6,6,1,0,6,1,0,NA,NA
"C118442",29,"10/25/89","male","English","static","audio-keyboard-response",70,"sound/6star.wav",3612,NA,6,180,NA,NA,319308,"adult",6,6,1,0,6,1,0,NA,NA
"C118442",29,"10/25/89","male","English","static","audio-keyboard-response",72,"sound/6star.wav",3612,NA,6,186,NA,NA,321197,"adult",6,6,1,0,6,1,0,NA,NA
"C118442",29,"10/25/89","male","English","static","audio-keyboard-response",74,"sound/6star.wav",3612,NA,6,192,NA,NA,322908,"adult",6,6,1,0,6,1,0,NA,NA
"C118442",29,"10/25/89","male","English","static","audio-keyboard-response",76,"sound/6star.wav",3612,NA,6,198,NA,NA,324637,"adult",6,6,1,0,6,1,0,NA,NA
"C118442",29,"10/25/89","male","English","static","audio-keyboard-response",78,"sound/6star.wav",3612,NA,6,204,NA,NA,326287,"adult",6,6,1,0,6,1,0,NA,NA
"C118442",29,"10/25/89","male","English","static","audio-keyboard-response",80,"sound/6star.wav",3612,NA,6,210,NA,NA,328061,"adult",6,6,1,0,6,1,0,NA,NA
"C118442",29,"10/25/89","male","English","static","audio-keyboard-response",82,"sound/6star.wav",3612,NA,6,216,NA,NA,329865,"adult",6,6,1,0,6,1,0,NA,NA
"C118442",29,"10/25/89","male","English","static","audio-keyboard-response",84,"sound/6star.wav",3612,NA,6,222,NA,NA,331521,"adult",6,6,1,0,6,1,0,NA,NA
"C118442",29,"10/25/89","male","English","static","audio-keyboard-response",86,"sound/6star.wav",3612,NA,6,228,NA,NA,333219,"adult",6,6,1,0,6,1,0,NA,NA
"C118442",29,"10/25/89","male","English","static","audio-keyboard-response",88,"sound/6star.wav",3612,NA,6,234,NA,NA,334973,"adult",6,6,1,0,6,1,0,NA,NA
"C118442",29,"10/25/89","male","English","static","audio-keyboard-response",90,"sound/6star.wav",3612,NA,6,240,NA,NA,336756,"adult",6,6,1,0,6,1,0,NA,NA
"C118442",29,"10/25/89","male","English","static","audio-keyboard-response",92,"sound/6star.wav",3612,NA,6,246,NA,NA,338538,"adult",6,6,1,0,6,1,0,NA,NA
"C118442",29,"10/25/89","male","English","static","audio-keyboard-response",94,"sound/6star.wav",3612,NA,6,252,NA,NA,340218,"adult",6,6,1,0,6,1,0,NA,NA
"C118442",29,"10/25/89","male","English","static","audio-keyboard-response",96,"sound/6star.wav",3612,NA,6,258,NA,NA,341954,"adult",6,6,1,0,6,1,0,NA,NA
"C118442",29,"10/25/89","male","English","static","audio-keyboard-response",98,"sound/6star.wav",3612,NA,6,264,NA,NA,343710,"adult",6,6,1,0,6,1,0,NA,NA
"C118442",29,"10/25/89","male","English","static","audio-keyboard-response",100,"sound/6star.wav",3612,NA,6,270,NA,NA,345518,"adult",6,6,1,0,6,1,0,NA,NA
"C118442",29,"10/25/89","male","English","static","audio-keyboard-response",102,"sound/6star.wav",3612,NA,6,276,NA,NA,347288,"adult",6,6,1,0,6,1,0,NA,NA
"C118442",29,"10/25/89","male","English","static","audio-keyboard-response",104,"sound/6star.wav",3612,NA,6,282,NA,NA,348984,"adult",6,6,1,0,6,1,0,NA,NA
"C118442",29,"10/25/89","male","English","static","audio-keyboard-response",106,"sound/6star.wav",3612,NA,6,288,NA,NA,350812,"adult",6,6,1,0,6,1,0,NA,NA
"C118442",29,"10/25/89","male","English","static","audio-keyboard-response",108,"sound/6star.wav",3612,NA,6,294,NA,NA,352477,"adult",6,6,1,0,6,1,0,NA,NA
"C118442",29,"10/25/89","male","English","static","audio-keyboard-response",110,"sound/6star.wav",3612,NA,6,300,NA,NA,354297,"adult",6,6,1,0,6,1,0,NA,NA
"C118442",29,"10/25/89","male","English","static","audio-keyboard-response",112,"sound/6star.wav",3612,NA,6,306,NA,NA,355962,"adult",6,6,1,0,6,1,0,NA,NA
"C118442",29,"10/25/89","male","English","static","audio-keyboard-response",114,"sound/6star.wav",3612,NA,6,312,NA,NA,357906,"adult",6,6,1,0,6,1,0,NA,NA
"C118442",29,"10/25/89","male","English","static","audio-keyboard-response",116,"sound/6star.wav",3612,NA,6,318,NA,NA,359705,"adult",6,6,1,0,6,1,0,NA,NA
"C118442",29,"10/25/89","male","English","static","audio-keyboard-response",118,"sound/6star.wav",3612,NA,6,324,NA,NA,361479,"adult",6,6,1,0,6,1,0,NA,NA
"C118442",29,"10/25/89","male","English","static","audio-keyboard-response",120,"sound/6star.wav",3612,NA,6,330,NA,NA,363296,"adult",6,6,1,0,6,1,0,NA,NA
"C118442",29,"10/25/89","male","English","static","audio-keyboard-response",122,"sound/6star.wav",3612,NA,6,336,NA,NA,364954,"adult",6,6,1,0,6,1,0,NA,NA
"C118442",29,"10/25/89","male","English","static","audio-keyboard-response",124,"sound/6star.wav",3612,NA,6,342,NA,NA,366705,"adult",6,6,1,0,6,1,0,NA,NA
"C118442",29,"10/25/89","male","English","static","audio-keyboard-response",126,"sound/6star.wav",3612,NA,6,348,NA,NA,368400,"adult",6,6,1,0,6,1,0,NA,NA
"C118442",29,"10/25/89","male","English","static","audio-keyboard-response",128,"sound/6star.wav",3612,NA,6,354,NA,NA,370151,"adult",6,6,1,0,6,1,0,NA,NA
"C118442",29,"10/25/89","male","English","static","audio-keyboard-response",130,"sound/6star.wav",3612,NA,6,360,NA,NA,371748,"adult",6,6,1,0,6,1,0,NA,NA
"C118442",29,"10/25/89","male","English","static","audio-keyboard-response",132,"sound/6star.wav",3612,NA,6,366,NA,NA,373544,"adult",6,6,1,0,6,1,0,NA,NA
"C118442",29,"10/25/89","male","English","static","audio-keyboard-response",134,"sound/6star.wav",3612,NA,6,372,NA,NA,375226,"adult",6,6,1,0,6,1,0,NA,NA
"C118442",29,"10/25/89","male","English","static","audio-keyboard-response",136,"sound/6star.wav",3612,NA,6,378,NA,NA,376895,"adult",6,6,1,0,6,1,0,NA,NA
"C118442",29,"10/25/89","male","English","static","audio-keyboard-response",138,"sound/6star.wav",3612,NA,6,384,NA,NA,378678,"adult",6,6,1,0,6,1,0,NA,NA
"C118442",29,"10/25/89","male","English","static","audio-keyboard-response",140,"sound/6star.wav",3612,NA,6,390,NA,NA,380488,"adult",6,6,1,0,6,1,0,NA,NA
"C118442",29,"10/25/89","male","English","static","audio-keyboard-response",142,"sound/6star.wav",3612,NA,6,396,NA,NA,382231,"adult",6,6,1,0,6,1,0,NA,NA
"C118442",29,"10/25/89","male","English","static","audio-keyboard-response",144,"sound/6star.wav",3612,NA,6,402,NA,NA,383970,"adult",6,6,1,0,6,1,0,NA,NA
"C118442",29,"10/25/89","male","English","static","audio-keyboard-response",146,"sound/6star.wav",3612,NA,6,408,NA,NA,385771,"adult",6,6,1,0,6,1,0,NA,NA
"C118442",29,"10/25/89","male","English","static","audio-keyboard-response",148,"sound/6star.wav",3612,NA,6,414,NA,NA,387569,"adult",6,6,1,0,6,1,0,NA,NA
"C118442",29,"10/25/89","male","English","static","audio-keyboard-response",150,"sound/6star.wav",3612,NA,6,420,NA,NA,389280,"adult",6,6,1,0,6,1,0,NA,NA
"C118442",29,"10/25/89","male","English","static","audio-keyboard-response",152,"sound/6star.wav",3612,NA,6,426,NA,NA,390889,"adult",6,6,1,0,6,1,0,NA,NA
"C118442",29,"10/25/89","male","English","static","audio-keyboard-response",154,"sound/6star.wav",3612,NA,6,432,NA,NA,392741,"adult",6,6,1,0,6,1,0,NA,NA
"C118442",29,"10/25/89","male","English","static","audio-keyboard-response",156,"sound/6star.wav",3612,NA,6,438,NA,NA,394831,"adult",6,6,1,0,6,1,0,NA,NA
"C118442",29,"10/25/89","male","English","static","audio-keyboard-response",158,"sound/6star.wav",3612,NA,6,444,NA,NA,396552,"adult",6,6,1,0,6,1,0,NA,NA
"C118442",29,"10/25/89","male","English","static","audio-keyboard-response",160,"sound/6star.wav",3612,NA,6,450,NA,NA,398388,"adult",6,6,1,0,6,1,0,NA,NA
"C118442",29,"10/25/89","male","English","static","audio-keyboard-response",162,"sound/6star.wav",3612,NA,6,456,NA,NA,400394,"adult",6,6,1,0,6,1,0,NA,NA
"C118442",29,"10/25/89","male","English","static","audio-keyboard-response",164,"sound/6star.wav",3612,NA,6,462,NA,NA,402043,"adult",6,6,1,0,6,1,0,NA,NA
"C118442",29,"10/25/89","male","English","static","audio-keyboard-response",166,"sound/6star.wav",3612,NA,6,468,NA,NA,404071,"adult",6,6,1,0,6,1,0,NA,NA
"C121661",32,"6/3/86","Male","English","static","audio-keyboard-response",8,"sound/2star.wav",6312,NA,2,2,NA,NA,62387,"adult",2,NA,1,0,NA,NA,NA,NA,NA
"C121661",32,"6/3/86","Male","English","static","audio-keyboard-response",10,"sound/3star.wav",6312,NA,3,5,NA,NA,64720,"adult",3,2,1,0,2,0,1,NA,NA
"C121661",32,"6/3/86","Male","English","static","audio-keyboard-response",12,"sound/6star.wav",6312,NA,6,11,NA,NA,66658,"adult",6,3,1,0,3,0,1,NA,NA
"C121661",32,"6/3/86","Male","English","static","audio-keyboard-response",14,"sound/1star.wav",6312,NA,1,12,NA,NA,68580,"adult",6,6,0,1,6,0,1,NA,NA
"C121661",32,"6/3/86","Male","English","static","audio-keyboard-response",16,"sound/6star.wav",6312,NA,6,18,NA,NA,70453,"adult",6,6,1,0,1,0,1,NA,NA
"C121661",32,"6/3/86","Male","English","static","audio-keyboard-response",18,"sound/6star.wav",6312,NA,6,24,NA,NA,72279,"adult",6,6,1,0,6,1,0,NA,NA
"C121661",32,"6/3/86","Male","English","static","audio-keyboard-response",20,"sound/6star.wav",6312,NA,6,30,NA,NA,74112,"adult",6,6,1,0,6,1,0,NA,NA
"C121661",32,"6/3/86","Male","English","static","audio-keyboard-response",22,"sound/6star.wav",6312,NA,6,36,NA,NA,75949,"adult",6,6,1,0,6,1,0,NA,NA
"C121661",32,"6/3/86","Male","English","static","audio-keyboard-response",24,"sound/6star.wav",6312,NA,6,42,NA,NA,77633,"adult",6,6,1,0,6,1,0,NA,NA
"C121661",32,"6/3/86","Male","English","static","audio-keyboard-response",26,"sound/6star.wav",6312,NA,6,48,NA,NA,79636,"adult",6,6,1,0,6,1,0,NA,NA
"C121661",32,"6/3/86","Male","English","static","audio-keyboard-response",28,"sound/6star.wav",6312,NA,6,54,NA,NA,81868,"adult",6,6,1,0,6,1,0,NA,NA
"C121661",32,"6/3/86","Male","English","static","audio-keyboard-response",30,"sound/6star.wav",6312,NA,6,60,NA,NA,83716,"adult",6,6,1,0,6,1,0,NA,NA
"C121661",32,"6/3/86","Male","English","static","audio-keyboard-response",32,"sound/6star.wav",6312,NA,6,66,NA,NA,87003,"adult",6,6,1,0,6,1,0,NA,NA
"C121661",32,"6/3/86","Male","English","static","audio-keyboard-response",34,"sound/6star.wav",6312,NA,6,72,NA,NA,90521,"adult",6,6,1,0,6,1,0,NA,NA
"C121661",32,"6/3/86","Male","English","static","audio-keyboard-response",36,"sound/6star.wav",6312,NA,6,78,NA,NA,92441,"adult",6,6,1,0,6,1,0,NA,NA
"C121661",32,"6/3/86","Male","English","static","audio-keyboard-response",38,"sound/6star.wav",6312,NA,6,84,NA,NA,94371,"adult",6,6,1,0,6,1,0,NA,NA
"C121661",32,"6/3/86","Male","English","static","audio-keyboard-response",40,"sound/6star.wav",6312,NA,6,90,NA,NA,96306,"adult",6,6,1,0,6,1,0,NA,NA
"C121661",32,"6/3/86","Male","English","static","audio-keyboard-response",42,"sound/6star.wav",6312,NA,6,96,NA,NA,98337,"adult",6,6,1,0,6,1,0,NA,NA
"C121661",32,"6/3/86","Male","English","static","audio-keyboard-response",44,"sound/6star.wav",6312,NA,6,102,NA,NA,100220,"adult",6,6,1,0,6,1,0,NA,NA
"C121661",32,"6/3/86","Male","English","static","audio-keyboard-response",46,"sound/6star.wav",6312,NA,6,108,NA,NA,102004,"adult",6,6,1,0,6,1,0,NA,NA
"C121661",32,"6/3/86","Male","English","static","audio-keyboard-response",48,"sound/6star.wav",6312,NA,6,114,NA,NA,104283,"adult",6,6,1,0,6,1,0,NA,NA
"C121661",32,"6/3/86","Male","English","static","audio-keyboard-response",50,"sound/6star.wav",6312,NA,6,120,NA,NA,106386,"adult",6,6,1,0,6,1,0,NA,NA
"C121661",32,"6/3/86","Male","English","static","audio-keyboard-response",52,"sound/6star.wav",6312,NA,6,126,NA,NA,108649,"adult",6,6,1,0,6,1,0,NA,NA
"C121661",32,"6/3/86","Male","English","static","audio-keyboard-response",54,"sound/6star.wav",6312,NA,6,132,NA,NA,110622,"adult",6,6,1,0,6,1,0,NA,NA
"C121661",32,"6/3/86","Male","English","static","audio-keyboard-response",56,"sound/6star.wav",6312,NA,6,138,NA,NA,112466,"adult",6,6,1,0,6,1,0,NA,NA
"C121661",32,"6/3/86","Male","English","static","audio-keyboard-response",58,"sound/6star.wav",6312,NA,6,144,NA,NA,114433,"adult",6,6,1,0,6,1,0,NA,NA
"C121661",32,"6/3/86","Male","English","static","audio-keyboard-response",60,"sound/6star.wav",6312,NA,6,150,NA,NA,116223,"adult",6,6,1,0,6,1,0,NA,NA
"C121661",32,"6/3/86","Male","English","static","audio-keyboard-response",62,"sound/6star.wav",6312,NA,6,156,NA,NA,118202,"adult",6,6,1,0,6,1,0,NA,NA
"C121661",32,"6/3/86","Male","English","static","audio-keyboard-response",64,"sound/6star.wav",6312,NA,6,162,NA,NA,119958,"adult",6,6,1,0,6,1,0,NA,NA
"C121661",32,"6/3/86","Male","English","static","audio-keyboard-response",66,"sound/6star.wav",6312,NA,6,168,NA,NA,125423,"adult",6,6,1,0,6,1,0,NA,NA
"C121661",32,"6/3/86","Male","English","static","audio-keyboard-response",68,"sound/6star.wav",6312,NA,6,174,NA,NA,127784,"adult",6,6,1,0,6,1,0,NA,NA
"C121661",32,"6/3/86","Male","English","static","audio-keyboard-response",70,"sound/6star.wav",6312,NA,6,180,NA,NA,129924,"adult",6,6,1,0,6,1,0,NA,NA
"C121661",32,"6/3/86","Male","English","static","audio-keyboard-response",72,"sound/6star.wav",6312,NA,6,186,NA,NA,132186,"adult",6,6,1,0,6,1,0,NA,NA
"C121661",32,"6/3/86","Male","English","static","audio-keyboard-response",74,"sound/6star.wav",6312,NA,6,192,NA,NA,134299,"adult",6,6,1,0,6,1,0,NA,NA
"C121661",32,"6/3/86","Male","English","static","audio-keyboard-response",76,"sound/6star.wav",6312,NA,6,198,NA,NA,136334,"adult",6,6,1,0,6,1,0,NA,NA
"C121661",32,"6/3/86","Male","English","static","audio-keyboard-response",78,"sound/6star.wav",6312,NA,6,204,NA,NA,138025,"adult",6,6,1,0,6,1,0,NA,NA
"C121661",32,"6/3/86","Male","English","static","audio-keyboard-response",80,"sound/6star.wav",6312,NA,6,210,NA,NA,140219,"adult",6,6,1,0,6,1,0,NA,NA
"C121661",32,"6/3/86","Male","English","static","audio-keyboard-response",82,"sound/6star.wav",6312,NA,6,216,NA,NA,141943,"adult",6,6,1,0,6,1,0,NA,NA
"C121661",32,"6/3/86","Male","English","static","audio-keyboard-response",84,"sound/6star.wav",6312,NA,6,222,NA,NA,144156,"adult",6,6,1,0,6,1,0,NA,NA
"C121661",32,"6/3/86","Male","English","static","audio-keyboard-response",86,"sound/6star.wav",6312,NA,6,228,NA,NA,146204,"adult",6,6,1,0,6,1,0,NA,NA
"C121661",32,"6/3/86","Male","English","static","audio-keyboard-response",88,"sound/6star.wav",6312,NA,6,234,NA,NA,148050,"adult",6,6,1,0,6,1,0,NA,NA
"C121661",32,"6/3/86","Male","English","static","audio-keyboard-response",90,"sound/6star.wav",6312,NA,6,240,NA,NA,149871,"adult",6,6,1,0,6,1,0,NA,NA
"C121661",32,"6/3/86","Male","English","static","audio-keyboard-response",92,"sound/6star.wav",6312,NA,6,246,NA,NA,151975,"adult",6,6,1,0,6,1,0,NA,NA
"C121661",32,"6/3/86","Male","English","static","audio-keyboard-response",94,"sound/6star.wav",6312,NA,6,252,NA,NA,153738,"adult",6,6,1,0,6,1,0,NA,NA
"C121661",32,"6/3/86","Male","English","static","audio-keyboard-response",96,"sound/6star.wav",6312,NA,6,258,NA,NA,156925,"adult",6,6,1,0,6,1,0,NA,NA
"C121661",32,"6/3/86","Male","English","static","audio-keyboard-response",98,"sound/6star.wav",6312,NA,6,264,NA,NA,158733,"adult",6,6,1,0,6,1,0,NA,NA
"C121661",32,"6/3/86","Male","English","static","audio-keyboard-response",100,"sound/6star.wav",6312,NA,6,270,NA,NA,160773,"adult",6,6,1,0,6,1,0,NA,NA
"C121661",32,"6/3/86","Male","English","static","audio-keyboard-response",102,"sound/6star.wav",6312,NA,6,276,NA,NA,162636,"adult",6,6,1,0,6,1,0,NA,NA
"C121661",32,"6/3/86","Male","English","static","audio-keyboard-response",104,"sound/6star.wav",6312,NA,6,282,NA,NA,164510,"adult",6,6,1,0,6,1,0,NA,NA
"C121661",32,"6/3/86","Male","English","static","audio-keyboard-response",106,"sound/6star.wav",6312,NA,6,288,NA,NA,166633,"adult",6,6,1,0,6,1,0,NA,NA
"C121661",32,"6/3/86","Male","English","static","audio-keyboard-response",108,"sound/6star.wav",6312,NA,6,294,NA,NA,169027,"adult",6,6,1,0,6,1,0,NA,NA
"C121661",32,"6/3/86","Male","English","static","audio-keyboard-response",110,"sound/6star.wav",6312,NA,6,300,NA,NA,170755,"adult",6,6,1,0,6,1,0,NA,NA
"C121661",32,"6/3/86","Male","English","static","audio-keyboard-response",112,"sound/6star.wav",6312,NA,6,306,NA,NA,172869,"adult",6,6,1,0,6,1,0,NA,NA
"C121661",32,"6/3/86","Male","English","static","audio-keyboard-response",114,"sound/6star.wav",6312,NA,6,312,NA,NA,174840,"adult",6,6,1,0,6,1,0,NA,NA
"C121661",32,"6/3/86","Male","English","static","audio-keyboard-response",116,"sound/6star.wav",6312,NA,6,318,NA,NA,176997,"adult",6,6,1,0,6,1,0,NA,NA
"C121661",32,"6/3/86","Male","English","static","audio-keyboard-response",118,"sound/6star.wav",6312,NA,6,324,NA,NA,181309,"adult",6,6,1,0,6,1,0,NA,NA
"C121661",32,"6/3/86","Male","English","static","audio-keyboard-response",120,"sound/6star.wav",6312,NA,6,330,NA,NA,183203,"adult",6,6,1,0,6,1,0,NA,NA
"C121661",32,"6/3/86","Male","English","static","audio-keyboard-response",122,"sound/6star.wav",6312,NA,6,336,NA,NA,185115,"adult",6,6,1,0,6,1,0,NA,NA
"C121661",32,"6/3/86","Male","English","static","audio-keyboard-response",124,"sound/6star.wav",6312,NA,6,342,NA,NA,187058,"adult",6,6,1,0,6,1,0,NA,NA
"C121661",32,"6/3/86","Male","English","static","audio-keyboard-response",126,"sound/6star.wav",6312,NA,6,348,NA,NA,188725,"adult",6,6,1,0,6,1,0,NA,NA
"C121661",32,"6/3/86","Male","English","static","audio-keyboard-response",128,"sound/6star.wav",6312,NA,6,354,NA,NA,196197,"adult",6,6,1,0,6,1,0,NA,NA
"C121661",32,"6/3/86","Male","English","static","audio-keyboard-response",130,"sound/6star.wav",6312,NA,6,360,NA,NA,199048,"adult",6,6,1,0,6,1,0,NA,NA
"C121661",32,"6/3/86","Male","English","static","audio-keyboard-response",132,"sound/6star.wav",6312,NA,6,366,NA,NA,200938,"adult",6,6,1,0,6,1,0,NA,NA
"C121661",32,"6/3/86","Male","English","static","audio-keyboard-response",134,"sound/6star.wav",6312,NA,6,372,NA,NA,202857,"adult",6,6,1,0,6,1,0,NA,NA
"C121661",32,"6/3/86","Male","English","static","audio-keyboard-response",136,"sound/6star.wav",6312,NA,6,378,NA,NA,204743,"adult",6,6,1,0,6,1,0,NA,NA
"C121661",32,"6/3/86","Male","English","static","audio-keyboard-response",138,"sound/6star.wav",6312,NA,6,384,NA,NA,206690,"adult",6,6,1,0,6,1,0,NA,NA
"C121661",32,"6/3/86","Male","English","static","audio-keyboard-response",140,"sound/6star.wav",6312,NA,6,390,NA,NA,208938,"adult",6,6,1,0,6,1,0,NA,NA
"C121661",32,"6/3/86","Male","English","static","audio-keyboard-response",142,"sound/6star.wav",6312,NA,6,396,NA,NA,211184,"adult",6,6,1,0,6,1,0,NA,NA
"C121661",32,"6/3/86","Male","English","static","audio-keyboard-response",144,"sound/6star.wav",6312,NA,6,402,NA,NA,213115,"adult",6,6,1,0,6,1,0,NA,NA
"C121661",32,"6/3/86","Male","English","static","audio-keyboard-response",146,"sound/6star.wav",6312,NA,6,408,NA,NA,214821,"adult",6,6,1,0,6,1,0,NA,NA
"C121661",32,"6/3/86","Male","English","static","audio-keyboard-response",148,"sound/6star.wav",6312,NA,6,414,NA,NA,216765,"adult",6,6,1,0,6,1,0,NA,NA
"C121661",32,"6/3/86","Male","English","static","audio-keyboard-response",150,"sound/6star.wav",6312,NA,6,420,NA,NA,218456,"adult",6,6,1,0,6,1,0,NA,NA
"C121661",32,"6/3/86","Male","English","static","audio-keyboard-response",152,"sound/6star.wav",6312,NA,6,426,NA,NA,220308,"adult",6,6,1,0,6,1,0,NA,NA
"C121661",32,"6/3/86","Male","English","static","audio-keyboard-response",154,"sound/6star.wav",6312,NA,6,432,NA,NA,222104,"adult",6,6,1,0,6,1,0,NA,NA
"C121661",32,"6/3/86","Male","English","static","audio-keyboard-response",156,"sound/6star.wav",6312,NA,6,438,NA,NA,224056,"adult",6,6,1,0,6,1,0,NA,NA
"C121661",32,"6/3/86","Male","English","static","audio-keyboard-response",158,"sound/6star.wav",6312,NA,6,444,NA,NA,225888,"adult",6,6,1,0,6,1,0,NA,NA
"C121661",32,"6/3/86","Male","English","static","audio-keyboard-response",160,"sound/6star.wav",6312,NA,6,450,NA,NA,228146,"adult",6,6,1,0,6,1,0,NA,NA
"C121661",32,"6/3/86","Male","English","static","audio-keyboard-response",162,"sound/6star.wav",6312,NA,6,456,NA,NA,230700,"adult",6,6,1,0,6,1,0,NA,NA
"C121661",32,"6/3/86","Male","English","static","audio-keyboard-response",164,"sound/6star.wav",6312,NA,6,462,NA,NA,232823,"adult",6,6,1,0,6,1,0,NA,NA
"C121661",32,"6/3/86","Male","English","static","audio-keyboard-response",166,"sound/6star.wav",6312,NA,6,468,NA,NA,234705,"adult",6,6,1,0,6,1,0,NA,NA
"C122521",42,"10/6/76","Female","English","dynamic","audio-keyboard-response",8,"sound/2star.wav",6213,NA,2,2,NA,NA,90656,"adult",2,NA,1,0,NA,NA,NA,0,80
"C122521",42,"10/6/76","Female","English","dynamic","audio-keyboard-response",10,"sound/3star.wav",6213,NA,3,5,NA,NA,97187,"adult",3,2,1,0,2,0,1,0,80
"C122521",42,"10/6/76","Female","English","dynamic","audio-keyboard-response",12,"sound/1star.wav",6213,NA,1,6,NA,NA,100876,"adult",3,3,0,1,3,0,1,0,80
"C122521",42,"10/6/76","Female","English","dynamic","audio-keyboard-response",14,"sound/3star.wav",6213,NA,3,9,NA,NA,102925,"adult",3,3,1,0,1,0,1,0,80
"C122521",42,"10/6/76","Female","English","dynamic","audio-keyboard-response",16,"sound/3star.wav",6213,NA,3,12,NA,NA,105090,"adult",3,3,1,0,3,1,0,0,80
"C122521",42,"10/6/76","Female","English","dynamic","audio-keyboard-response",18,"sound/6star.wav",6213,NA,6,18,NA,NA,107119,"adult",6,3,1,0,3,0,1,0,80
"C122521",42,"10/6/76","Female","English","dynamic","audio-keyboard-response",20,"sound/6star.wav",6213,NA,6,24,NA,NA,109194,"adult",6,6,1,0,6,1,0,0,80
"C122521",42,"10/6/76","Female","English","dynamic","audio-keyboard-response",22,"sound/6star.wav",6213,NA,6,30,NA,NA,111166,"adult",6,6,1,0,6,1,0,0,80
"C122521",42,"10/6/76","Female","English","dynamic","audio-keyboard-response",24,"sound/6star.wav",6213,NA,6,36,NA,NA,113188,"adult",6,6,1,0,6,1,0,0,80
"C122521",42,"10/6/76","Female","English","dynamic","audio-keyboard-response",26,"sound/6star.wav",6213,NA,6,42,NA,NA,115136,"adult",6,6,1,0,6,1,0,0,80
"C122521",42,"10/6/76","Female","English","dynamic","audio-keyboard-response",28,"sound/6star.wav",6213,NA,6,48,NA,NA,117832,"adult",6,6,1,0,6,1,0,0,80
"C122521",42,"10/6/76","Female","English","dynamic","audio-keyboard-response",30,"sound/6star.wav",6213,NA,6,54,NA,NA,119785,"adult",6,6,1,0,6,1,0,0,80
"C122521",42,"10/6/76","Female","English","dynamic","audio-keyboard-response",32,"sound/6star.wav",6213,NA,6,60,NA,NA,123397,"adult",6,6,1,0,6,1,0,0,80
"C122521",42,"10/6/76","Female","English","dynamic","audio-keyboard-response",34,"sound/6star.wav",6213,NA,6,66,NA,NA,125419,"adult",6,6,1,0,6,1,0,0,80
"C122521",42,"10/6/76","Female","English","dynamic","audio-keyboard-response",36,"sound/6star.wav",6213,NA,6,72,NA,NA,127430,"adult",6,6,1,0,6,1,0,0,80
"C122521",42,"10/6/76","Female","English","dynamic","audio-keyboard-response",38,"sound/6star.wav",6213,NA,6,78,NA,NA,129387,"adult",6,6,1,0,6,1,0,0,80
"C122521",42,"10/6/76","Female","English","dynamic","audio-keyboard-response",40,"sound/6star.wav",6213,NA,6,84,NA,NA,132205,"adult",6,6,1,0,6,1,0,0,80
"C122521",42,"10/6/76","Female","English","dynamic","audio-keyboard-response",42,"sound/6star.wav",6213,NA,6,90,NA,NA,134894,"adult",6,6,1,0,6,1,0,0,80
"C122521",42,"10/6/76","Female","English","dynamic","audio-keyboard-response",44,"sound/6star.wav",6213,NA,6,96,NA,NA,137103,"adult",6,6,1,0,6,1,0,0,80
"C122521",42,"10/6/76","Female","English","dynamic","audio-keyboard-response",46,"sound/6star.wav",6213,NA,6,102,NA,NA,139211,"adult",6,6,1,0,6,1,0,0,80
"C122521",42,"10/6/76","Female","English","dynamic","audio-keyboard-response",48,"sound/6star.wav",6213,NA,6,108,NA,NA,141520,"adult",6,6,1,0,6,1,0,0,80
"C122521",42,"10/6/76","Female","English","dynamic","audio-keyboard-response",50,"sound/6star.wav",6213,NA,6,114,NA,NA,143681,"adult",6,6,1,0,6,1,0,0,80
"C122521",42,"10/6/76","Female","English","dynamic","audio-keyboard-response",52,"sound/6star.wav",6213,NA,6,120,NA,NA,145656,"adult",6,6,1,0,6,1,0,0,80
"C122521",42,"10/6/76","Female","English","dynamic","audio-keyboard-response",54,"sound/6star.wav",6213,NA,6,126,NA,NA,151692,"adult",6,6,1,0,6,1,0,0,80
"C122521",42,"10/6/76","Female","English","dynamic","audio-keyboard-response",56,"sound/6star.wav",6213,NA,6,132,NA,NA,153882,"adult",6,6,1,0,6,1,0,0,80
"C122521",42,"10/6/76","Female","English","dynamic","audio-keyboard-response",58,"sound/6star.wav",6213,NA,6,138,NA,NA,155810,"adult",6,6,1,0,6,1,0,0,80
"C122521",42,"10/6/76","Female","English","dynamic","audio-keyboard-response",60,"sound/1star.wav",6213,NA,1,139,NA,NA,158024,"adult",6,6,0,1,6,0,1,0,80
"C122521",42,"10/6/76","Female","English","dynamic","audio-keyboard-response",62,"sound/3star.wav",6213,NA,3,142,NA,NA,160005,"adult",6,6,0,1,1,0,1,0,80
"C122521",42,"10/6/76","Female","English","dynamic","audio-keyboard-response",64,"sound/2star.wav",6213,NA,2,144,NA,NA,162011,"adult",6,6,0,1,3,0,1,0,80
"C122521",42,"10/6/76","Female","English","dynamic","audio-keyboard-response",66,"sound/6star.wav",6213,NA,6,150,NA,NA,163943,"adult",6,6,1,0,2,0,1,0,80
"C122521",42,"10/6/76","Female","English","dynamic","audio-keyboard-response",68,"sound/6star.wav",6213,NA,6,156,NA,NA,166003,"adult",6,6,1,0,6,1,0,0,80
"C122521",42,"10/6/76","Female","English","dynamic","audio-keyboard-response",70,"sound/6star.wav",6213,NA,6,162,NA,NA,168479,"adult",6,6,1,0,6,1,0,0,80
"C122521",42,"10/6/76","Female","English","dynamic","audio-keyboard-response",72,"sound/6star.wav",6213,NA,6,168,NA,NA,170440,"adult",6,6,1,0,6,1,0,0,80
"C122521",42,"10/6/76","Female","English","dynamic","audio-keyboard-response",74,"sound/6star.wav",6213,NA,6,174,NA,NA,172113,"adult",6,6,1,0,6,1,0,0,80
"C122521",42,"10/6/76","Female","English","dynamic","audio-keyboard-response",76,"sound/6star.wav",6213,NA,6,180,NA,NA,176207,"adult",6,6,1,0,6,1,0,0,80
"C122521",42,"10/6/76","Female","English","dynamic","audio-keyboard-response",78,"sound/6star.wav",6213,NA,6,186,NA,NA,178384,"adult",6,6,1,0,6,1,0,0,80
"C122521",42,"10/6/76","Female","English","dynamic","audio-keyboard-response",80,"sound/6star.wav",6213,NA,6,192,NA,NA,180372,"adult",6,6,1,0,6,1,0,0,80
"C122521",42,"10/6/76","Female","English","dynamic","audio-keyboard-response",82,"sound/6star.wav",6213,NA,6,198,NA,NA,182444,"adult",6,6,1,0,6,1,0,0,80
"C122521",42,"10/6/76","Female","English","dynamic","audio-keyboard-response",84,"sound/6star.wav",6213,NA,6,204,NA,NA,184405,"adult",6,6,1,0,6,1,0,0,80
"C122521",42,"10/6/76","Female","English","dynamic","audio-keyboard-response",86,"sound/6star.wav",6213,NA,6,210,NA,NA,187102,"adult",6,6,1,0,6,1,0,0,80
"C122521",42,"10/6/76","Female","English","dynamic","audio-keyboard-response",88,"sound/6star.wav",6213,NA,6,216,NA,NA,189268,"adult",6,6,1,0,6,1,0,0,80
"C122521",42,"10/6/76","Female","English","dynamic","audio-keyboard-response",90,"sound/6star.wav",6213,NA,6,222,NA,NA,191359,"adult",6,6,1,0,6,1,0,0,80
"C122521",42,"10/6/76","Female","English","dynamic","audio-keyboard-response",92,"sound/6star.wav",6213,NA,6,228,NA,NA,193349,"adult",6,6,1,0,6,1,0,0,80
"C122521",42,"10/6/76","Female","English","dynamic","audio-keyboard-response",94,"sound/6star.wav",6213,NA,6,234,NA,NA,195314,"adult",6,6,1,0,6,1,0,0,80
"C122521",42,"10/6/76","Female","English","dynamic","audio-keyboard-response",96,"sound/6star.wav",6213,NA,6,240,NA,NA,197436,"adult",6,6,1,0,6,1,0,0,80
"C122521",42,"10/6/76","Female","English","dynamic","audio-keyboard-response",98,"sound/6star.wav",6213,NA,6,246,NA,NA,199614,"adult",6,6,1,0,6,1,0,0,80
"C122521",42,"10/6/76","Female","English","dynamic","audio-keyboard-response",100,"sound/6star.wav",6213,NA,6,252,NA,NA,201484,"adult",6,6,1,0,6,1,0,0,80
"C122521",42,"10/6/76","Female","English","dynamic","audio-keyboard-response",102,"sound/6star.wav",6213,NA,6,258,NA,NA,203446,"adult",6,6,1,0,6,1,0,0,80
"C122521",42,"10/6/76","Female","English","dynamic","audio-keyboard-response",104,"sound/6star.wav",6213,NA,6,264,NA,NA,205408,"adult",6,6,1,0,6,1,0,0,80
"C122521",42,"10/6/76","Female","English","dynamic","audio-keyboard-response",106,"sound/6star.wav",6213,NA,6,270,NA,NA,207966,"adult",6,6,1,0,6,1,0,0,80
"C122521",42,"10/6/76","Female","English","dynamic","audio-keyboard-response",108,"sound/6star.wav",6213,NA,6,276,NA,NA,210849,"adult",6,6,1,0,6,1,0,0,80
"C122521",42,"10/6/76","Female","English","dynamic","audio-keyboard-response",110,"sound/6star.wav",6213,NA,6,282,NA,NA,212868,"adult",6,6,1,0,6,1,0,0,80
"C122521",42,"10/6/76","Female","English","dynamic","audio-keyboard-response",112,"sound/6star.wav",6213,NA,6,288,NA,NA,214962,"adult",6,6,1,0,6,1,0,0,80
"C122521",42,"10/6/76","Female","English","dynamic","audio-keyboard-response",114,"sound/6star.wav",6213,NA,6,294,NA,NA,217016,"adult",6,6,1,0,6,1,0,0,80
"C122521",42,"10/6/76","Female","English","dynamic","audio-keyboard-response",116,"sound/6star.wav",6213,NA,6,300,NA,NA,219022,"adult",6,6,1,0,6,1,0,0,80
"C122521",42,"10/6/76","Female","English","dynamic","audio-keyboard-response",118,"sound/6star.wav",6213,NA,6,306,NA,NA,221013,"adult",6,6,1,0,6,1,0,0,80
"C122521",42,"10/6/76","Female","English","dynamic","audio-keyboard-response",120,"sound/6star.wav",6213,NA,6,312,NA,NA,223055,"adult",6,6,1,0,6,1,0,0,80
"C122521",42,"10/6/76","Female","English","dynamic","audio-keyboard-response",122,"sound/6star.wav",6213,NA,6,318,NA,NA,226082,"adult",6,6,1,0,6,1,0,0,80
"C122521",42,"10/6/76","Female","English","dynamic","audio-keyboard-response",124,"sound/6star.wav",6213,NA,6,324,NA,NA,228048,"adult",6,6,1,0,6,1,0,0,80
"C122521",42,"10/6/76","Female","English","dynamic","audio-keyboard-response",126,"sound/6star.wav",6213,NA,6,330,NA,NA,230008,"adult",6,6,1,0,6,1,0,0,80
"C122521",42,"10/6/76","Female","English","dynamic","audio-keyboard-response",128,"sound/6star.wav",6213,NA,6,336,NA,NA,231939,"adult",6,6,1,0,6,1,0,0,80
"C122521",42,"10/6/76","Female","English","dynamic","audio-keyboard-response",130,"sound/6star.wav",6213,NA,6,342,NA,NA,233918,"adult",6,6,1,0,6,1,0,0,80
"C122521",42,"10/6/76","Female","English","dynamic","audio-keyboard-response",132,"sound/6star.wav",6213,NA,6,348,NA,NA,235969,"adult",6,6,1,0,6,1,0,0,80
"C122521",42,"10/6/76","Female","English","dynamic","audio-keyboard-response",134,"sound/6star.wav",6213,NA,6,354,NA,NA,237967,"adult",6,6,1,0,6,1,0,0,80
"C122521",42,"10/6/76","Female","English","dynamic","audio-keyboard-response",136,"sound/6star.wav",6213,NA,6,360,NA,NA,240047,"adult",6,6,1,0,6,1,0,0,80
"C122521",42,"10/6/76","Female","English","dynamic","audio-keyboard-response",138,"sound/6star.wav",6213,NA,6,366,NA,NA,242187,"adult",6,6,1,0,6,1,0,0,80
"C122521",42,"10/6/76","Female","English","dynamic","audio-keyboard-response",140,"sound/6star.wav",6213,NA,6,372,NA,NA,244203,"adult",6,6,1,0,6,1,0,0,80
"C122521",42,"10/6/76","Female","English","dynamic","audio-keyboard-response",142,"sound/6star.wav",6213,NA,6,378,NA,NA,246181,"adult",6,6,1,0,6,1,0,0,80
"C122521",42,"10/6/76","Female","English","dynamic","audio-keyboard-response",144,"sound/6star.wav",6213,NA,6,384,NA,NA,248270,"adult",6,6,1,0,6,1,0,0,80
"C122521",42,"10/6/76","Female","English","dynamic","audio-keyboard-response",146,"sound/6star.wav",6213,NA,6,390,NA,NA,250253,"adult",6,6,1,0,6,1,0,0,80
"C122521",42,"10/6/76","Female","English","dynamic","audio-keyboard-response",148,"sound/6star.wav",6213,NA,6,396,NA,NA,252203,"adult",6,6,1,0,6,1,0,0,80
"C122521",42,"10/6/76","Female","English","dynamic","audio-keyboard-response",150,"sound/6star.wav",6213,NA,6,402,NA,NA,254288,"adult",6,6,1,0,6,1,0,0,80
"C122521",42,"10/6/76","Female","English","dynamic","audio-keyboard-response",152,"sound/6star.wav",6213,NA,6,408,NA,NA,256396,"adult",6,6,1,0,6,1,0,0,80
"C122521",42,"10/6/76","Female","English","dynamic","audio-keyboard-response",154,"sound/6star.wav",6213,NA,6,414,NA,NA,262228,"adult",6,6,1,0,6,1,0,0,80
"C122521",42,"10/6/76","Female","English","dynamic","audio-keyboard-response",156,"sound/6star.wav",6213,NA,6,420,NA,NA,264288,"adult",6,6,1,0,6,1,0,0,80
"C122521",42,"10/6/76","Female","English","dynamic","audio-keyboard-response",158,"sound/6star.wav",6213,NA,6,426,NA,NA,266298,"adult",6,6,1,0,6,1,0,0,80
"C122521",42,"10/6/76","Female","English","dynamic","audio-keyboard-response",160,"sound/6star.wav",6213,NA,6,432,NA,NA,268700,"adult",6,6,1,0,6,1,0,0,80
"C122521",42,"10/6/76","Female","English","dynamic","audio-keyboard-response",162,"sound/6star.wav",6213,NA,6,438,NA,NA,270659,"adult",6,6,1,0,6,1,0,0,80
"C122521",42,"10/6/76","Female","English","dynamic","audio-keyboard-response",164,"sound/6star.wav",6213,NA,6,444,NA,NA,272654,"adult",6,6,1,0,6,1,0,0,80
"C122521",42,"10/6/76","Female","English","dynamic","audio-keyboard-response",166,"sound/6star.wav",6213,NA,6,450,NA,NA,274638,"adult",6,6,1,0,6,1,0,0,80
"C124605",30,"9/13/88","female","english","dynamic","audio-keyboard-response",15,"sound/6star.wav",1632,NA,6,6,NA,NA,127299,"adult",6,NA,1,0,NA,NA,NA,1,40
"C124605",30,"9/13/88","female","english","dynamic","audio-keyboard-response",17,"sound/2star.wav",1632,NA,2,8,NA,NA,130580,"adult",6,6,0,1,6,0,1,1,40
"C124605",30,"9/13/88","female","english","dynamic","audio-keyboard-response",19,"sound/1star.wav",1632,NA,1,9,NA,NA,133533,"adult",6,6,0,1,2,0,1,1,40
"C124605",30,"9/13/88","female","english","dynamic","audio-keyboard-response",21,"sound/3star.wav",1632,NA,3,12,NA,NA,137253,"adult",6,6,0,1,1,0,1,1,40
"C124605",30,"9/13/88","female","english","dynamic","audio-keyboard-response",23,"sound/6star.wav",1632,NA,6,18,NA,NA,158920,"adult",6,6,1,0,3,0,1,1,40
"C124605",30,"9/13/88","female","english","dynamic","audio-keyboard-response",25,"sound/6star.wav",1632,NA,6,24,NA,NA,227947,"adult",6,6,1,0,6,1,0,1,40
"C124605",30,"9/13/88","female","english","dynamic","audio-keyboard-response",27,"sound/1star.wav",1632,NA,1,25,NA,NA,230232,"adult",6,6,0,1,6,0,1,1,40
"C124605",30,"9/13/88","female","english","dynamic","audio-keyboard-response",29,"sound/2star.wav",1632,NA,2,27,NA,NA,232600,"adult",6,6,0,1,1,0,1,1,40
"C124605",30,"9/13/88","female","english","dynamic","audio-keyboard-response",31,"sound/6star.wav",1632,NA,6,33,NA,NA,234309,"adult",6,6,1,0,2,0,1,1,40
"C124605",30,"9/13/88","female","english","dynamic","audio-keyboard-response",33,"sound/3star.wav",1632,NA,3,36,NA,NA,236367,"adult",6,6,0,1,6,0,1,1,40
"C124605",30,"9/13/88","female","english","dynamic","audio-keyboard-response",35,"sound/6star.wav",1632,NA,6,42,NA,NA,238533,"adult",6,6,1,0,3,0,1,1,40
"C124605",30,"9/13/88","female","english","dynamic","audio-keyboard-response",37,"sound/1star.wav",1632,NA,1,43,NA,NA,240654,"adult",6,6,0,1,6,0,1,1,40
"C124605",30,"9/13/88","female","english","dynamic","audio-keyboard-response",39,"sound/6star.wav",1632,NA,6,49,NA,NA,242948,"adult",6,6,1,0,1,0,1,1,40
"C124605",30,"9/13/88","female","english","dynamic","audio-keyboard-response",41,"sound/3star.wav",1632,NA,3,52,NA,NA,244941,"adult",6,6,0,1,6,0,1,1,40
"C124605",30,"9/13/88","female","english","dynamic","audio-keyboard-response",43,"sound/6star.wav",1632,NA,6,58,NA,NA,247091,"adult",6,6,1,0,3,0,1,1,40
"C124605",30,"9/13/88","female","english","dynamic","audio-keyboard-response",45,"sound/6star.wav",1632,NA,6,64,NA,NA,249276,"adult",6,6,1,0,6,1,0,1,40
"C124605",30,"9/13/88","female","english","dynamic","audio-keyboard-response",47,"sound/6star.wav",1632,NA,6,70,NA,NA,287562,"adult",6,6,1,0,6,1,0,1,40
"C124605",30,"9/13/88","female","english","dynamic","audio-keyboard-response",49,"sound/2star.wav",1632,NA,2,72,NA,NA,289655,"adult",6,6,0,1,6,0,1,1,40
"C124605",30,"9/13/88","female","english","dynamic","audio-keyboard-response",51,"sound/1star.wav",1632,NA,1,73,NA,NA,292681,"adult",6,6,0,1,2,0,1,1,40
"C124605",30,"9/13/88","female","english","dynamic","audio-keyboard-response",53,"sound/6star.wav",1632,NA,6,79,NA,NA,294809,"adult",6,6,1,0,1,0,1,1,40
"C124605",30,"9/13/88","female","english","dynamic","audio-keyboard-response",55,"sound/3star.wav",1632,NA,3,82,NA,NA,297215,"adult",6,6,0,1,6,0,1,1,40
"C124605",30,"9/13/88","female","english","dynamic","audio-keyboard-response",57,"sound/6star.wav",1632,NA,6,88,NA,NA,300187,"adult",6,6,1,0,3,0,1,1,40
"C124605",30,"9/13/88","female","english","dynamic","audio-keyboard-response",59,"sound/2star.wav",1632,NA,2,90,NA,NA,302464,"adult",6,6,0,1,6,0,1,1,40
"C124605",30,"9/13/88","female","english","dynamic","audio-keyboard-response",61,"sound/3star.wav",1632,NA,3,93,NA,NA,304997,"adult",6,6,0,1,2,0,1,1,40
"C124605",30,"9/13/88","female","english","dynamic","audio-keyboard-response",63,"sound/6star.wav",1632,NA,6,99,NA,NA,308792,"adult",6,6,1,0,3,0,1,1,40
"C124605",30,"9/13/88","female","english","dynamic","audio-keyboard-response",65,"sound/1star.wav",1632,NA,1,100,NA,NA,311697,"adult",6,6,0,1,6,0,1,1,40
"C124605",30,"9/13/88","female","english","dynamic","audio-keyboard-response",67,"sound/6star.wav",1632,NA,6,106,NA,NA,321838,"adult",6,6,1,0,1,0,1,1,40
"C124605",30,"9/13/88","female","english","dynamic","audio-keyboard-response",69,"sound/3star.wav",1632,NA,3,109,NA,NA,325759,"adult",6,6,0,1,6,0,1,1,40
"C124605",30,"9/13/88","female","english","dynamic","audio-keyboard-response",71,"sound/6star.wav",1632,NA,6,115,NA,NA,327818,"adult",6,6,1,0,3,0,1,1,40
"C124605",30,"9/13/88","female","english","dynamic","audio-keyboard-response",73,"sound/2star.wav",1632,NA,2,117,NA,NA,332027,"adult",6,6,0,1,6,0,1,1,40
"C124605",30,"9/13/88","female","english","dynamic","audio-keyboard-response",75,"sound/1star.wav",1632,NA,1,118,NA,NA,335169,"adult",6,6,0,1,2,0,1,1,40
"C124605",30,"9/13/88","female","english","dynamic","audio-keyboard-response",77,"sound/2star.wav",1632,NA,2,120,NA,NA,339017,"adult",6,6,0,1,1,0,1,1,40
"C124605",30,"9/13/88","female","english","dynamic","audio-keyboard-response",79,"sound/6star.wav",1632,NA,6,126,NA,NA,341286,"adult",6,6,1,0,2,0,1,1,40
"C124605",30,"9/13/88","female","english","dynamic","audio-keyboard-response",81,"sound/3star.wav",1632,NA,3,129,NA,NA,343579,"adult",6,6,0,1,6,0,1,1,40
"C124605",30,"9/13/88","female","english","dynamic","audio-keyboard-response",83,"sound/6star.wav",1632,NA,6,135,NA,NA,345794,"adult",6,6,1,0,3,0,1,1,40
"C124605",30,"9/13/88","female","english","dynamic","audio-keyboard-response",85,"sound/1star.wav",1632,NA,1,136,NA,NA,347883,"adult",6,6,0,1,6,0,1,1,40
"C124605",30,"9/13/88","female","english","dynamic","audio-keyboard-response",87,"sound/2star.wav",1632,NA,2,138,NA,NA,351554,"adult",6,6,0,1,1,0,1,1,40
"C124605",30,"9/13/88","female","english","dynamic","audio-keyboard-response",89,"sound/3star.wav",1632,NA,3,141,NA,NA,353710,"adult",6,6,0,1,2,0,1,1,40
"C124605",30,"9/13/88","female","english","dynamic","audio-keyboard-response",91,"sound/6star.wav",1632,NA,6,147,NA,NA,356150,"adult",6,6,1,0,3,0,1,1,40
"C124605",30,"9/13/88","female","english","dynamic","audio-keyboard-response",93,"sound/2star.wav",1632,NA,2,149,NA,NA,360071,"adult",6,6,0,1,6,0,1,1,40
"C124605",30,"9/13/88","female","english","dynamic","audio-keyboard-response",95,"sound/8star.wav",1632,NA,8,157,NA,NA,361736,"adult",8,6,1,0,2,0,1,1,40
"C124605",30,"9/13/88","female","english","dynamic","audio-keyboard-response",97,"sound/2star.wav",1632,NA,2,159,NA,NA,364049,"adult",8,8,0,1,8,0,1,1,40
"C124605",30,"9/13/88","female","english","dynamic","audio-keyboard-response",99,"sound/3star.wav",1632,NA,3,162,NA,NA,365658,"adult",8,8,0,1,2,0,1,1,40
"C124605",30,"9/13/88","female","english","dynamic","audio-keyboard-response",101,"sound/8star.wav",1632,NA,8,170,NA,NA,367468,"adult",8,8,1,0,3,0,1,1,40
"C124605",30,"9/13/88","female","english","dynamic","audio-keyboard-response",103,"sound/6star.wav",1632,NA,6,176,NA,NA,371629,"adult",8,8,0,1,8,0,1,1,40
"C124605",30,"9/13/88","female","english","dynamic","audio-keyboard-response",105,"sound/3star.wav",1632,NA,3,179,NA,NA,378284,"adult",8,8,0,1,6,0,1,1,40
"C124605",30,"9/13/88","female","english","dynamic","audio-keyboard-response",107,"sound/6star.wav",1632,NA,6,185,NA,NA,380497,"adult",8,8,0,1,3,0,1,1,40
"C124605",30,"9/13/88","female","english","dynamic","audio-keyboard-response",109,"sound/6star.wav",1632,NA,6,191,NA,NA,382617,"adult",8,8,0,1,6,1,0,1,40
"C124605",30,"9/13/88","female","english","dynamic","audio-keyboard-response",111,"sound/8star.wav",1632,NA,8,199,NA,NA,384299,"adult",8,8,1,0,6,0,1,1,40
"C124605",30,"9/13/88","female","english","dynamic","audio-keyboard-response",113,"sound/2star.wav",1632,NA,2,201,NA,NA,386330,"adult",8,8,0,1,8,0,1,1,40
"C124605",30,"9/13/88","female","english","dynamic","audio-keyboard-response",115,"sound/3star.wav",1632,NA,3,204,NA,NA,388405,"adult",8,8,0,1,2,0,1,1,40
"C124605",30,"9/13/88","female","english","dynamic","audio-keyboard-response",117,"sound/6star.wav",1632,NA,6,210,NA,NA,390453,"adult",8,8,0,1,3,0,1,1,40
"C124605",30,"9/13/88","female","english","dynamic","audio-keyboard-response",119,"sound/8star.wav",1632,NA,8,218,NA,NA,392592,"adult",8,8,1,0,6,0,1,1,40
"C124605",30,"9/13/88","female","english","dynamic","audio-keyboard-response",121,"sound/2star.wav",1632,NA,2,220,NA,NA,394665,"adult",8,8,0,1,8,0,1,1,40
"C124605",30,"9/13/88","female","english","dynamic","audio-keyboard-response",123,"sound/8star.wav",1632,NA,8,228,NA,NA,397857,"adult",8,8,1,0,2,0,1,1,40
"C124605",30,"9/13/88","female","english","dynamic","audio-keyboard-response",125,"sound/6star.wav",1632,NA,6,234,NA,NA,399790,"adult",8,8,0,1,8,0,1,1,40
"C124605",30,"9/13/88","female","english","dynamic","audio-keyboard-response",127,"sound/6star.wav",1632,NA,6,240,NA,NA,402199,"adult",8,8,0,1,6,1,0,1,40
"C124605",30,"9/13/88","female","english","dynamic","audio-keyboard-response",129,"sound/3star.wav",1632,NA,3,243,NA,NA,404479,"adult",8,8,0,1,6,0,1,1,40
"C124605",30,"9/13/88","female","english","dynamic","audio-keyboard-response",131,"sound/2star.wav",1632,NA,2,245,NA,NA,436479,"adult",8,8,0,1,3,0,1,1,40
"C124605",30,"9/13/88","female","english","dynamic","audio-keyboard-response",133,"sound/8star.wav",1632,NA,8,253,NA,NA,439786,"adult",8,8,1,0,2,0,1,1,40
"C124605",30,"9/13/88","female","english","dynamic","audio-keyboard-response",135,"sound/3star.wav",1632,NA,3,256,NA,NA,441907,"adult",8,8,0,1,8,0,1,1,40
"C124605",30,"9/13/88","female","english","dynamic","audio-keyboard-response",137,"sound/8star.wav",1632,NA,8,264,NA,NA,443916,"adult",8,8,1,0,3,0,1,1,40
"C124605",30,"9/13/88","female","english","dynamic","audio-keyboard-response",139,"sound/6star.wav",1632,NA,6,270,NA,NA,445939,"adult",8,8,0,1,8,0,1,1,40
"C124605",30,"9/13/88","female","english","dynamic","audio-keyboard-response",141,"sound/6star.wav",1632,NA,6,276,NA,NA,464067,"adult",8,8,0,1,6,1,0,1,40
"C124605",30,"9/13/88","female","english","dynamic","audio-keyboard-response",143,"sound/3star.wav",1632,NA,3,279,NA,NA,468098,"adult",8,8,0,1,6,0,1,1,40
"C124605",30,"9/13/88","female","english","dynamic","audio-keyboard-response",145,"sound/8star.wav",1632,NA,8,287,NA,NA,470195,"adult",8,8,1,0,3,0,1,1,40
"C124605",30,"9/13/88","female","english","dynamic","audio-keyboard-response",147,"sound/8star.wav",1632,NA,8,295,NA,NA,472461,"adult",8,8,1,0,8,1,0,1,40
"C124605",30,"9/13/88","female","english","dynamic","audio-keyboard-response",149,"sound/2star.wav",1632,NA,2,297,NA,NA,474603,"adult",8,8,0,1,8,0,1,1,40
"C124605",30,"9/13/88","female","english","dynamic","audio-keyboard-response",151,"sound/8star.wav",1632,NA,8,305,NA,NA,476690,"adult",8,8,1,0,2,0,1,1,40
"C124605",30,"9/13/88","female","english","dynamic","audio-keyboard-response",153,"sound/6star.wav",1632,NA,6,311,NA,NA,479276,"adult",8,8,0,1,8,0,1,1,40
"C124605",30,"9/13/88","female","english","dynamic","audio-keyboard-response",155,"sound/8star.wav",1632,NA,8,319,NA,NA,483071,"adult",8,8,1,0,6,0,1,1,40
"C124605",30,"9/13/88","female","english","dynamic","audio-keyboard-response",157,"sound/2star.wav",1632,NA,2,321,NA,NA,485922,"adult",8,8,0,1,8,0,1,1,40
"C124605",30,"9/13/88","female","english","dynamic","audio-keyboard-response",159,"sound/3star.wav",1632,NA,3,324,NA,NA,488037,"adult",8,8,0,1,2,0,1,1,40
"C124605",30,"9/13/88","female","english","dynamic","audio-keyboard-response",161,"sound/6star.wav",1632,NA,6,330,NA,NA,489928,"adult",8,8,0,1,3,0,1,1,40
"C124605",30,"9/13/88","female","english","dynamic","audio-keyboard-response",163,"sound/8star.wav",1632,NA,8,338,NA,NA,492140,"adult",8,8,1,0,6,0,1,1,40
"C124605",30,"9/13/88","female","english","dynamic","audio-keyboard-response",165,"sound/8star.wav",1632,NA,8,346,NA,NA,494454,"adult",8,8,1,0,8,1,0,1,40
"C124605",30,"9/13/88","female","english","dynamic","audio-keyboard-response",167,"sound/8star.wav",1632,NA,8,354,NA,NA,496382,"adult",8,8,1,0,8,1,0,1,40
"C124605",30,"9/13/88","female","english","dynamic","audio-keyboard-response",169,"sound/8star.wav",1632,NA,8,362,NA,NA,498381,"adult",8,8,1,0,8,1,0,1,40
"C124605",30,"9/13/88","female","english","dynamic","audio-keyboard-response",171,"sound/8star.wav",1632,NA,8,370,NA,NA,500130,"adult",8,8,1,0,8,1,0,1,40
"C124605",30,"9/13/88","female","english","dynamic","audio-keyboard-response",173,"sound/8star.wav",1632,NA,8,378,NA,NA,502197,"adult",8,8,1,0,8,1,0,1,40
"C141267",30,"5/1/88","Male","English","static","audio-keyboard-response",8,"sound/2star.wav",2316,NA,2,2,NA,NA,93897,"adult",2,NA,1,0,NA,NA,NA,NA,NA
"C141267",30,"5/1/88","Male","English","static","audio-keyboard-response",10,"sound/3star.wav",2316,NA,3,5,NA,NA,97088,"adult",3,2,1,0,2,0,1,NA,NA
"C141267",30,"5/1/88","Male","English","static","audio-keyboard-response",12,"sound/1star.wav",2316,NA,1,6,NA,NA,101560,"adult",3,3,0,1,3,0,1,NA,NA
"C141267",30,"5/1/88","Male","English","static","audio-keyboard-response",14,"sound/6star.wav",2316,NA,6,12,NA,NA,105752,"adult",6,3,1,0,1,0,1,NA,NA
"C141267",30,"5/1/88","Male","English","static","audio-keyboard-response",16,"sound/6star.wav",2316,NA,6,18,NA,NA,109702,"adult",6,6,1,0,6,1,0,NA,NA
"C141267",30,"5/1/88","Male","English","static","audio-keyboard-response",18,"sound/6star.wav",2316,NA,6,24,NA,NA,111689,"adult",6,6,1,0,6,1,0,NA,NA
"C141267",30,"5/1/88","Male","English","static","audio-keyboard-response",20,"sound/6star.wav",2316,NA,6,30,NA,NA,113687,"adult",6,6,1,0,6,1,0,NA,NA
"C141267",30,"5/1/88","Male","English","static","audio-keyboard-response",22,"sound/6star.wav",2316,NA,6,36,NA,NA,115648,"adult",6,6,1,0,6,1,0,NA,NA
"C141267",30,"5/1/88","Male","English","static","audio-keyboard-response",24,"sound/6star.wav",2316,NA,6,42,NA,NA,117562,"adult",6,6,1,0,6,1,0,NA,NA
"C141267",30,"5/1/88","Male","English","static","audio-keyboard-response",26,"sound/6star.wav",2316,NA,6,48,NA,NA,119488,"adult",6,6,1,0,6,1,0,NA,NA
"C141267",30,"5/1/88","Male","English","static","audio-keyboard-response",28,"sound/6star.wav",2316,NA,6,54,NA,NA,121361,"adult",6,6,1,0,6,1,0,NA,NA
"C141267",30,"5/1/88","Male","English","static","audio-keyboard-response",30,"sound/6star.wav",2316,NA,6,60,NA,NA,123377,"adult",6,6,1,0,6,1,0,NA,NA
"C141267",30,"5/1/88","Male","English","static","audio-keyboard-response",32,"sound/6star.wav",2316,NA,6,66,NA,NA,125266,"adult",6,6,1,0,6,1,0,NA,NA
"C141267",30,"5/1/88","Male","English","static","audio-keyboard-response",34,"sound/6star.wav",2316,NA,6,72,NA,NA,127243,"adult",6,6,1,0,6,1,0,NA,NA
"C141267",30,"5/1/88","Male","English","static","audio-keyboard-response",36,"sound/6star.wav",2316,NA,6,78,NA,NA,129216,"adult",6,6,1,0,6,1,0,NA,NA
"C141267",30,"5/1/88","Male","English","static","audio-keyboard-response",38,"sound/6star.wav",2316,NA,6,84,NA,NA,131161,"adult",6,6,1,0,6,1,0,NA,NA
