stimulus,button_pressed,trial_type,trial_index,time_elapsed,internal_node_id,condition,pointvals_firsthalf,gender,age,dob,language,country,turkcode,animation_sequence,responses,key_press,earnedThis,earnedCumulative,posttest
"<p>Hi! Welcome to the experiment. This study takes the form of a simple decision making task.<br> It is designed to help us learn how children make decisions, so it will look like a kid's game.<br> However, in order to understand how kids make choices, we need to compare what they do to adults<br> doing the same task. That's you! Because of this, we ask you to take the task seriously and do your<br>best, even if the task seems like a strange thing for an adult to do.</p>",0,html-button-response,0,21285,0.0-0.0-0.0-0.0,dynamic,"6,2,3,1",Female,52,3/7/67,English,United States of America,C657532,,,,,,
,,animation,1,33287,0.0-0.0-1.0,dynamic,"6,2,3,1",Female,52,3/7/67,English,United States of America,C657532,"[{""stimulus"":""img/screen1a.png"",""time"":3002},{""stimulus"":""img/screen1b.png"",""time"":6002},{""stimulus"":""img/screen1c.png"",""time"":9001}]",[],,,,
<img src='img/screen1d.png'></img>,0,html-button-response,2,36446,0.0-0.0-2.0,dynamic,"6,2,3,1",Female,52,3/7/67,English,United States of America,C657532,,,,,,
,,animation,3,57248,0.0-0.0-3.0,dynamic,"6,2,3,1",Female,52,3/7/67,English,United States of America,C657532,"[{""stimulus"":""img/screen2.jpg"",""time"":802},{""stimulus"":""img/screen2.jpg"",""time"":1601},{""stimulus"":""img/screen2.jpg"",""time"":2401},{""stimulus"":""img/screen2.jpg"",""time"":3201},{""stimulus"":""img/screen2.jpg"",""time"":4001},{""stimulus"":""img/screen3a.jpg"",""time"":4800},{""stimulus"":""img/screen3b.jpg"",""time"":5600},{""stimulus"":""img/screen3c.jpg"",""time"":6400},{""stimulus"":""img/screen3d.jpg"",""time"":7200},{""stimulus"":""img/screen4a.jpg"",""time"":8002},{""stimulus"":""img/screen4a.jpg"",""time"":8800},{""stimulus"":""img/screen4b.jpg"",""time"":9601},{""stimulus"":""img/screen4c.jpg"",""time"":10401},{""stimulus"":""img/screen4d.jpg"",""time"":11200},{""stimulus"":""img/screen4d.jpg"",""time"":12000},{""stimulus"":""img/screen5a.jpg"",""time"":12800},{""stimulus"":""img/screen5b1.jpg"",""time"":13601},{""stimulus"":""img/screen5b2.jpg"",""time"":14401},{""stimulus"":""img/screen5b3.jpg"",""time"":15201},{""stimulus"":""img/screen5b4.jpg"",""time"":16000},{""stimulus"":""img/screen5b5.jpg"",""time"":16801},{""stimulus"":""img/screen5b6.jpg"",""time"":17600},{""stimulus"":""img/screen5c.jpg"",""time"":18400},{""stimulus"":""img/screen5d.jpg"",""time"":19201},{""stimulus"":""img/screen5d.jpg"",""time"":20001}]",[],,,,
<img src='img/screen5e.jpg'></img>,0,html-button-response,4,61634,0.0-0.0-4.0,dynamic,"6,2,3,1",Female,52,3/7/67,English,United States of America,C657532,,,,,,
,,survey-multi-choice,5,71627,0.0-0.0-5.0,dynamic,"6,2,3,1",Female,52,3/7/67,English,United States of America,C657532,,"{""Q0"":"" You click on the monsters"",""Q1"":"" Because the main study will have children participating""}",,,,
Well done!,0,html-button-response,6,73532,0.0-1.0,dynamic,"6,2,3,1",Female,52,3/7/67,English,United States of America,C657532,,,,,,
,3,html-button-response,7,86127,0.0-2.0-0.0,dynamic,"6,2,3,1",Female,52,3/7/67,English,United States of America,C657532,,,,,,
sound/1star.wav,,audio-keyboard-response,8,87630,0.0-2.0-1.0,dynamic,"6,2,3,1",Female,52,3/7/67,English,United States of America,C657532,,,null,1,1,
,2,html-button-response,9,89434,0.0-2.0-0.1,dynamic,"6,2,3,1",Female,52,3/7/67,English,United States of America,C657532,,,,,,
sound/3star.wav,,audio-keyboard-response,10,90937,0.0-2.0-1.1,dynamic,"6,2,3,1",Female,52,3/7/67,English,United States of America,C657532,,,null,3,4,
,0,html-button-response,11,92078,0.0-2.0-0.2,dynamic,"6,2,3,1",Female,52,3/7/67,English,United States of America,C657532,,,,,,
sound/6star.wav,,audio-keyboard-response,12,93581,0.0-2.0-1.2,dynamic,"6,2,3,1",Female,52,3/7/67,English,United States of America,C657532,,,null,6,10,
,1,html-button-response,13,94490,0.0-2.0-0.3,dynamic,"6,2,3,1",Female,52,3/7/67,English,United States of America,C657532,,,,,,
sound/2star.wav,,audio-keyboard-response,14,95992,0.0-2.0-1.3,dynamic,"6,2,3,1",Female,52,3/7/67,English,United States of America,C657532,,,null,2,12,
,0,html-button-response,15,96574,0.0-2.0-0.4,dynamic,"6,2,3,1",Female,52,3/7/67,English,United States of America,C657532,,,,,,
sound/6star.wav,,audio-keyboard-response,16,98077,0.0-2.0-1.4,dynamic,"6,2,3,1",Female,52,3/7/67,English,United States of America,C657532,,,null,6,18,
,0,html-button-response,17,98656,0.0-2.0-0.5,dynamic,"6,2,3,1",Female,52,3/7/67,English,United States of America,C657532,,,,,,
sound/6star.wav,,audio-keyboard-response,18,100160,0.0-2.0-1.5,dynamic,"6,2,3,1",Female,52,3/7/67,English,United States of America,C657532,,,null,6,24,
,0,html-button-response,19,100756,0.0-2.0-0.6,dynamic,"6,2,3,1",Female,52,3/7/67,English,United States of America,C657532,,,,,,
sound/6star.wav,,audio-keyboard-response,20,102258,0.0-2.0-1.6,dynamic,"6,2,3,1",Female,52,3/7/67,English,United States of America,C657532,,,null,6,30,
,0,html-button-response,21,110089,0.0-2.0-0.7,dynamic,"6,2,3,1",Female,52,3/7/67,English,United States of America,C657532,,,,,,
sound/6star.wav,,audio-keyboard-response,22,111591,0.0-2.0-1.7,dynamic,"6,2,3,1",Female,52,3/7/67,English,United States of America,C657532,,,null,6,36,
,0,html-button-response,23,112276,0.0-2.0-0.8,dynamic,"6,2,3,1",Female,52,3/7/67,English,United States of America,C657532,,,,,,
sound/6star.wav,,audio-keyboard-response,24,113778,0.0-2.0-1.8,dynamic,"6,2,3,1",Female,52,3/7/67,English,United States of America,C657532,,,null,6,42,
,0,html-button-response,25,114448,0.0-2.0-0.9,dynamic,"6,2,3,1",Female,52,3/7/67,English,United States of America,C657532,,,,,,
sound/6star.wav,,audio-keyboard-response,26,115950,0.0-2.0-1.9,dynamic,"6,2,3,1",Female,52,3/7/67,English,United States of America,C657532,,,null,6,48,
,0,html-button-response,27,116668,0.0-2.0-0.10,dynamic,"6,2,3,1",Female,52,3/7/67,English,United States of America,C657532,,,,,,
sound/6star.wav,,audio-keyboard-response,28,118170,0.0-2.0-1.10,dynamic,"6,2,3,1",Female,52,3/7/67,English,United States of America,C657532,,,null,6,54,
,0,html-button-response,29,118944,0.0-2.0-0.11,dynamic,"6,2,3,1",Female,52,3/7/67,English,United States of America,C657532,,,,,,
sound/6star.wav,,audio-keyboard-response,30,120448,0.0-2.0-1.11,dynamic,"6,2,3,1",Female,52,3/7/67,English,United States of America,C657532,,,null,6,60,
,0,html-button-response,31,120852,0.0-2.0-0.12,dynamic,"6,2,3,1",Female,52,3/7/67,English,United States of America,C657532,,,,,,
sound/6star.wav,,audio-keyboard-response,32,122353,0.0-2.0-1.12,dynamic,"6,2,3,1",Female,52,3/7/67,English,United States of America,C657532,,,null,6,66,
,2,html-button-response,33,122744,0.0-2.0-0.13,dynamic,"6,2,3,1",Female,52,3/7/67,English,United States of America,C657532,,,,,,
sound/3star.wav,,audio-keyboard-response,34,124248,0.0-2.0-1.13,dynamic,"6,2,3,1",Female,52,3/7/67,English,United States of America,C657532,,,null,3,69,
,0,html-button-response,35,124690,0.0-2.0-0.14,dynamic,"6,2,3,1",Female,52,3/7/67,English,United States of America,C657532,,,,,,
sound/6star.wav,,audio-keyboard-response,36,126192,0.0-2.0-1.14,dynamic,"6,2,3,1",Female,52,3/7/67,English,United States of America,C657532,,,null,6,75,
,1,html-button-response,37,126646,0.0-2.0-0.15,dynamic,"6,2,3,1",Female,52,3/7/67,English,United States of America,C657532,,,,,,
sound/2star.wav,,audio-keyboard-response,38,128149,0.0-2.0-1.15,dynamic,"6,2,3,1",Female,52,3/7/67,English,United States of America,C657532,,,null,2,77,
,0,html-button-response,39,128576,0.0-2.0-0.16,dynamic,"6,2,3,1",Female,52,3/7/67,English,United States of America,C657532,,,,,,
sound/6star.wav,,audio-keyboard-response,40,130079,0.0-2.0-1.16,dynamic,"6,2,3,1",Female,52,3/7/67,English,United States of America,C657532,,,null,6,83,
,0,html-button-response,41,130570,0.0-2.0-0.17,dynamic,"6,2,3,1",Female,52,3/7/67,English,United States of America,C657532,,,,,,
sound/6star.wav,,audio-keyboard-response,42,132073,0.0-2.0-1.17,dynamic,"6,2,3,1",Female,52,3/7/67,English,United States of America,C657532,,,null,6,89,
,0,html-button-response,43,132638,0.0-2.0-0.18,dynamic,"6,2,3,1",Female,52,3/7/67,English,United States of America,C657532,,,,,,
sound/6star.wav,,audio-keyboard-response,44,134141,0.0-2.0-1.18,dynamic,"6,2,3,1",Female,52,3/7/67,English,United States of America,C657532,,,null,6,95,
,0,html-button-response,45,135026,0.0-2.0-0.19,dynamic,"6,2,3,1",Female,52,3/7/67,English,United States of America,C657532,,,,,,
sound/6star.wav,,audio-keyboard-response,46,136532,0.0-2.0-1.19,dynamic,"6,2,3,1",Female,52,3/7/67,English,United States of America,C657532,,,null,6,101,
,0,html-button-response,47,137231,0.0-2.0-0.20,dynamic,"6,2,3,1",Female,52,3/7/67,English,United States of America,C657532,,,,,,
sound/6star.wav,,audio-keyboard-response,48,138734,0.0-2.0-1.20,dynamic,"6,2,3,1",Female,52,3/7/67,English,United States of America,C657532,,,null,6,107,
,0,html-button-response,49,139258,0.0-2.0-0.21,dynamic,"6,2,3,1",Female,52,3/7/67,English,United States of America,C657532,,,,,,
sound/6star.wav,,audio-keyboard-response,50,140761,0.0-2.0-1.21,dynamic,"6,2,3,1",Female,52,3/7/67,English,United States of America,C657532,,,null,6,113,
,0,html-button-response,51,142224,0.0-2.0-0.22,dynamic,"6,2,3,1",Female,52,3/7/67,English,United States of America,C657532,,,,,,
sound/6star.wav,,audio-keyboard-response,52,143727,0.0-2.0-1.22,dynamic,"6,2,3,1",Female,52,3/7/67,English,United States of America,C657532,,,null,6,119,
,0,html-button-response,53,144170,0.0-2.0-0.23,dynamic,"6,2,3,1",Female,52,3/7/67,English,United States of America,C657532,,,,,,
sound/6star.wav,,audio-keyboard-response,54,145673,0.0-2.0-1.23,dynamic,"6,2,3,1",Female,52,3/7/67,English,United States of America,C657532,,,null,6,125,
,0,html-button-response,55,146808,0.0-2.0-0.24,dynamic,"6,2,3,1",Female,52,3/7/67,English,United States of America,C657532,,,,,,
sound/6star.wav,,audio-keyboard-response,56,148311,0.0-2.0-1.24,dynamic,"6,2,3,1",Female,52,3/7/67,English,United States of America,C657532,,,null,6,131,
,2,html-button-response,57,149532,0.0-2.0-0.25,dynamic,"6,2,3,1",Female,52,3/7/67,English,United States of America,C657532,,,,,,
sound/3star.wav,,audio-keyboard-response,58,151034,0.0-2.0-1.25,dynamic,"6,2,3,1",Female,52,3/7/67,English,United States of America,C657532,,,null,3,134,
,3,html-button-response,59,151848,0.0-2.0-0.26,dynamic,"6,2,3,1",Female,52,3/7/67,English,United States of America,C657532,,,,,,
sound/1star.wav,,audio-keyboard-response,60,153351,0.0-2.0-1.26,dynamic,"6,2,3,1",Female,52,3/7/67,English,United States of America,C657532,,,null,1,135,
,1,html-button-response,61,153786,0.0-2.0-0.27,dynamic,"6,2,3,1",Female,52,3/7/67,English,United States of America,C657532,,,,,,
sound/2star.wav,,audio-keyboard-response,62,155290,0.0-2.0-1.27,dynamic,"6,2,3,1",Female,52,3/7/67,English,United States of America,C657532,,,null,2,137,
,0,html-button-response,63,155815,0.0-2.0-0.28,dynamic,"6,2,3,1",Female,52,3/7/67,English,United States of America,C657532,,,,,,
sound/6star.wav,,audio-keyboard-response,64,157316,0.0-2.0-1.28,dynamic,"6,2,3,1",Female,52,3/7/67,English,United States of America,C657532,,,null,6,143,
,0,html-button-response,65,157762,0.0-2.0-0.29,dynamic,"6,2,3,1",Female,52,3/7/67,English,United States of America,C657532,,,,,,
sound/6star.wav,,audio-keyboard-response,66,159264,0.0-2.0-1.29,dynamic,"6,2,3,1",Female,52,3/7/67,English,United States of America,C657532,,,null,6,149,
,0,html-button-response,67,159718,0.0-2.0-0.30,dynamic,"6,2,3,1",Female,52,3/7/67,English,United States of America,C657532,,,,,,
sound/6star.wav,,audio-keyboard-response,68,161220,0.0-2.0-1.30,dynamic,"6,2,3,1",Female,52,3/7/67,English,United States of America,C657532,,,null,6,155,
,0,html-button-response,69,161898,0.0-2.0-0.31,dynamic,"6,2,3,1",Female,52,3/7/67,English,United States of America,C657532,,,,,,
sound/6star.wav,,audio-keyboard-response,70,163400,0.0-2.0-1.31,dynamic,"6,2,3,1",Female,52,3/7/67,English,United States of America,C657532,,,null,6,161,
,0,html-button-response,71,164118,0.0-2.0-0.32,dynamic,"6,2,3,1",Female,52,3/7/67,English,United States of America,C657532,,,,,,
sound/6star.wav,,audio-keyboard-response,72,165621,0.0-2.0-1.32,dynamic,"6,2,3,1",Female,52,3/7/67,English,United States of America,C657532,,,null,6,167,
,0,html-button-response,73,166099,0.0-2.0-0.33,dynamic,"6,2,3,1",Female,52,3/7/67,English,United States of America,C657532,,,,,,
sound/6star.wav,,audio-keyboard-response,74,167601,0.0-2.0-1.33,dynamic,"6,2,3,1",Female,52,3/7/67,English,United States of America,C657532,,,null,6,173,
,0,html-button-response,75,168424,0.0-2.0-0.34,dynamic,"6,2,3,1",Female,52,3/7/67,English,United States of America,C657532,,,,,,
sound/6star.wav,,audio-keyboard-response,76,169927,0.0-2.0-1.34,dynamic,"6,2,3,1",Female,52,3/7/67,English,United States of America,C657532,,,null,6,179,
,0,html-button-response,77,170284,0.0-2.0-0.35,dynamic,"6,2,3,1",Female,52,3/7/67,English,United States of America,C657532,,,,,,
sound/6star.wav,,audio-keyboard-response,78,171787,0.0-2.0-1.35,dynamic,"6,2,3,1",Female,52,3/7/67,English,United States of America,C657532,,,null,6,185,
,0,html-button-response,79,172286,0.0-2.0-0.36,dynamic,"6,2,3,1",Female,52,3/7/67,English,United States of America,C657532,,,,,,
sound/6star.wav,,audio-keyboard-response,80,173789,0.0-2.0-1.36,dynamic,"6,2,3,1",Female,52,3/7/67,English,United States of America,C657532,,,null,6,191,
,0,html-button-response,81,174187,0.0-2.0-0.37,dynamic,"6,2,3,1",Female,52,3/7/67,English,United States of America,C657532,,,,,,
sound/6star.wav,,audio-keyboard-response,82,175689,0.0-2.0-1.37,dynamic,"6,2,3,1",Female,52,3/7/67,English,United States of America,C657532,,,null,6,197,
,0,html-button-response,83,176142,0.0-2.0-0.38,dynamic,"6,2,3,1",Female,52,3/7/67,English,United States of America,C657532,,,,,,
sound/6star.wav,,audio-keyboard-response,84,177643,0.0-2.0-1.38,dynamic,"6,2,3,1",Female,52,3/7/67,English,United States of America,C657532,,,null,6,203,
,0,html-button-response,85,178162,0.0-2.0-0.39,dynamic,"6,2,3,1",Female,52,3/7/67,English,United States of America,C657532,,,,,,
sound/6star.wav,,audio-keyboard-response,86,179665,0.0-2.0-1.39,dynamic,"6,2,3,1",Female,52,3/7/67,English,United States of America,C657532,,,null,6,209,
,0,html-button-response,87,180094,0.0-3.0-0.0,dynamic,"6,2,3,1",Female,52,3/7/67,English,United States of America,C657532,,,,,,
sound/6star.wav,,audio-keyboard-response,88,181596,0.0-3.0-1.0,dynamic,"6,2,3,1",Female,52,3/7/67,English,United States of America,C657532,,,null,6,215,
,0,html-button-response,89,182668,0.0-3.0-0.1,dynamic,"6,2,3,1",Female,52,3/7/67,English,United States of America,C657532,,,,,,
sound/6star.wav,,audio-keyboard-response,90,184170,0.0-3.0-1.1,dynamic,"6,2,3,1",Female,52,3/7/67,English,United States of America,C657532,,,null,6,221,
,0,html-button-response,91,184776,0.0-3.0-0.2,dynamic,"6,2,3,1",Female,52,3/7/67,English,United States of America,C657532,,,,,,
sound/6star.wav,,audio-keyboard-response,92,186278,0.0-3.0-1.2,dynamic,"6,2,3,1",Female,52,3/7/67,English,United States of America,C657532,,,null,6,227,
,0,html-button-response,93,186724,0.0-3.0-0.3,dynamic,"6,2,3,1",Female,52,3/7/67,English,United States of America,C657532,,,,,,
sound/6star.wav,,audio-keyboard-response,94,188227,0.0-3.0-1.3,dynamic,"6,2,3,1",Female,52,3/7/67,English,United States of America,C657532,,,null,6,233,
,0,html-button-response,95,188656,0.0-3.0-0.4,dynamic,"6,2,3,1",Female,52,3/7/67,English,United States of America,C657532,,,,,,
sound/6star.wav,,audio-keyboard-response,96,190159,0.0-3.0-1.4,dynamic,"6,2,3,1",Female,52,3/7/67,English,United States of America,C657532,,,null,6,239,
,0,html-button-response,97,192220,0.0-3.0-0.5,dynamic,"6,2,3,1",Female,52,3/7/67,English,United States of America,C657532,,,,,,
sound/6star.wav,,audio-keyboard-response,98,193723,0.0-3.0-1.5,dynamic,"6,2,3,1",Female,52,3/7/67,English,United States of America,C657532,,,null,6,245,
,0,html-button-response,99,197751,0.0-3.0-0.6,dynamic,"6,2,3,1",Female,52,3/7/67,English,United States of America,C657532,,,,,,
sound/6star.wav,,audio-keyboard-response,100,199255,0.0-3.0-1.6,dynamic,"6,2,3,1",Female,52,3/7/67,English,United States of America,C657532,,,null,6,251,
,0,html-button-response,101,199750,0.0-3.0-0.7,dynamic,"6,2,3,1",Female,52,3/7/67,English,United States of America,C657532,,,,,,
sound/6star.wav,,audio-keyboard-response,102,201252,0.0-3.0-1.7,dynamic,"6,2,3,1",Female,52,3/7/67,English,United States of America,C657532,,,null,6,257,
,0,html-button-response,103,201864,0.0-3.0-0.8,dynamic,"6,2,3,1",Female,52,3/7/67,English,United States of America,C657532,,,,,,
sound/6star.wav,,audio-keyboard-response,104,203367,0.0-3.0-1.8,dynamic,"6,2,3,1",Female,52,3/7/67,English,United States of America,C657532,,,null,6,263,
,0,html-button-response,105,203796,0.0-3.0-0.9,dynamic,"6,2,3,1",Female,52,3/7/67,English,United States of America,C657532,,,,,,
sound/6star.wav,,audio-keyboard-response,106,205298,0.0-3.0-1.9,dynamic,"6,2,3,1",Female,52,3/7/67,English,United States of America,C657532,,,null,6,269,
,0,html-button-response,107,205728,0.0-3.0-0.10,dynamic,"6,2,3,1",Female,52,3/7/67,English,United States of America,C657532,,,,,,
sound/6star.wav,,audio-keyboard-response,108,207233,0.0-3.0-1.10,dynamic,"6,2,3,1",Female,52,3/7/67,English,United States of America,C657532,,,null,6,275,
,0,html-button-response,109,207706,0.0-3.0-0.11,dynamic,"6,2,3,1",Female,52,3/7/67,English,United States of America,C657532,,,,,,
sound/6star.wav,,audio-keyboard-response,110,209209,0.0-3.0-1.11,dynamic,"6,2,3,1",Female,52,3/7/67,English,United States of America,C657532,,,null,6,281,
,0,html-button-response,111,209670,0.0-3.0-0.12,dynamic,"6,2,3,1",Female,52,3/7/67,English,United States of America,C657532,,,,,,
sound/6star.wav,,audio-keyboard-response,112,211174,0.0-3.0-1.12,dynamic,"6,2,3,1",Female,52,3/7/67,English,United States of America,C657532,,,null,6,287,
,0,html-button-response,113,211586,0.0-3.0-0.13,dynamic,"6,2,3,1",Female,52,3/7/67,English,United States of America,C657532,,,,,,
sound/6star.wav,,audio-keyboard-response,114,213088,0.0-3.0-1.13,dynamic,"6,2,3,1",Female,52,3/7/67,English,United States of America,C657532,,,null,6,293,
,0,html-button-response,115,213526,0.0-3.0-0.14,dynamic,"6,2,3,1",Female,52,3/7/67,English,United States of America,C657532,,,,,,
sound/6star.wav,,audio-keyboard-response,116,215030,0.0-3.0-1.14,dynamic,"6,2,3,1",Female,52,3/7/67,English,United States of America,C657532,,,null,6,299,
,0,html-button-response,117,215578,0.0-3.0-0.15,dynamic,"6,2,3,1",Female,52,3/7/67,English,United States of America,C657532,,,,,,
sound/6star.wav,,audio-keyboard-response,118,217079,0.0-3.0-1.15,dynamic,"6,2,3,1",Female,52,3/7/67,English,United States of America,C657532,,,null,6,305,
,0,html-button-response,119,217542,0.0-3.0-0.16,dynamic,"6,2,3,1",Female,52,3/7/67,English,United States of America,C657532,,,,,,
sound/6star.wav,,audio-keyboard-response,120,219045,0.0-3.0-1.16,dynamic,"6,2,3,1",Female,52,3/7/67,English,United States of America,C657532,,,null,6,311,
,0,html-button-response,121,219490,0.0-3.0-0.17,dynamic,"6,2,3,1",Female,52,3/7/67,English,United States of America,C657532,,,,,,
sound/6star.wav,,audio-keyboard-response,122,220994,0.0-3.0-1.17,dynamic,"6,2,3,1",Female,52,3/7/67,English,United States of America,C657532,,,null,6,317,
,0,html-button-response,123,221430,0.0-3.0-0.18,dynamic,"6,2,3,1",Female,52,3/7/67,English,United States of America,C657532,,,,,,
sound/6star.wav,,audio-keyboard-response,124,222931,0.0-3.0-1.18,dynamic,"6,2,3,1",Female,52,3/7/67,English,United States of America,C657532,,,null,6,323,
,0,html-button-response,125,223394,0.0-3.0-0.19,dynamic,"6,2,3,1",Female,52,3/7/67,English,United States of America,C657532,,,,,,
sound/6star.wav,,audio-keyboard-response,126,224897,0.0-3.0-1.19,dynamic,"6,2,3,1",Female,52,3/7/67,English,United States of America,C657532,,,null,6,329,
,0,html-button-response,127,225286,0.0-3.0-0.20,dynamic,"6,2,3,1",Female,52,3/7/67,English,United States of America,C657532,,,,,,
sound/6star.wav,,audio-keyboard-response,128,226789,0.0-3.0-1.20,dynamic,"6,2,3,1",Female,52,3/7/67,English,United States of America,C657532,,,null,6,335,
,0,html-button-response,129,227107,0.0-3.0-0.21,dynamic,"6,2,3,1",Female,52,3/7/67,English,United States of America,C657532,,,,,,
sound/6star.wav,,audio-keyboard-response,130,228608,0.0-3.0-1.21,dynamic,"6,2,3,1",Female,52,3/7/67,English,United States of America,C657532,,,null,6,341,
,0,html-button-response,131,228822,0.0-3.0-0.22,dynamic,"6,2,3,1",Female,52,3/7/67,English,United States of America,C657532,,,,,,
sound/6star.wav,,audio-keyboard-response,132,230325,0.0-3.0-1.22,dynamic,"6,2,3,1",Female,52,3/7/67,English,United States of America,C657532,,,null,6,347,
,0,html-button-response,133,230824,0.0-3.0-0.23,dynamic,"6,2,3,1",Female,52,3/7/67,English,United States of America,C657532,,,,,,
sound/6star.wav,,audio-keyboard-response,134,232327,0.0-3.0-1.23,dynamic,"6,2,3,1",Female,52,3/7/67,English,United States of America,C657532,,,null,6,353,
,0,html-button-response,135,232644,0.0-3.0-0.24,dynamic,"6,2,3,1",Female,52,3/7/67,English,United States of America,C657532,,,,,,
sound/6star.wav,,audio-keyboard-response,136,234146,0.0-3.0-1.24,dynamic,"6,2,3,1",Female,52,3/7/67,English,United States of America,C657532,,,null,6,359,
,0,html-button-response,137,234694,0.0-3.0-0.25,dynamic,"6,2,3,1",Female,52,3/7/67,English,United States of America,C657532,,,,,,
sound/6star.wav,,audio-keyboard-response,138,236197,0.0-3.0-1.25,dynamic,"6,2,3,1",Female,52,3/7/67,English,United States of America,C657532,,,null,6,365,
,0,html-button-response,139,236682,0.0-3.0-0.26,dynamic,"6,2,3,1",Female,52,3/7/67,English,United States of America,C657532,,,,,,
sound/6star.wav,,audio-keyboard-response,140,238184,0.0-3.0-1.26,dynamic,"6,2,3,1",Female,52,3/7/67,English,United States of America,C657532,,,null,6,371,
,0,html-button-response,141,238638,0.0-3.0-0.27,dynamic,"6,2,3,1",Female,52,3/7/67,English,United States of America,C657532,,,,,,
sound/6star.wav,,audio-keyboard-response,142,240148,0.0-3.0-1.27,dynamic,"6,2,3,1",Female,52,3/7/67,English,United States of America,C657532,,,null,6,377,
,0,html-button-response,143,240682,0.0-3.0-0.28,dynamic,"6,2,3,1",Female,52,3/7/67,English,United States of America,C657532,,,,,,
sound/6star.wav,,audio-keyboard-response,144,242185,0.0-3.0-1.28,dynamic,"6,2,3,1",Female,52,3/7/67,English,United States of America,C657532,,,null,6,383,
,3,html-button-response,145,242740,0.0-3.0-0.29,dynamic,"6,2,3,1",Female,52,3/7/67,English,United States of America,C657532,,,,,,
sound/8star.wav,,audio-keyboard-response,146,244243,0.0-3.0-1.29,dynamic,"6,2,3,1",Female,52,3/7/67,English,United States of America,C657532,,,null,8,391,
,3,html-button-response,147,245096,0.0-3.0-0.30,dynamic,"6,2,3,1",Female,52,3/7/67,English,United States of America,C657532,,,,,,
sound/8star.wav,,audio-keyboard-response,148,246598,0.0-3.0-1.30,dynamic,"6,2,3,1",Female,52,3/7/67,English,United States of America,C657532,,,null,8,399,
,3,html-button-response,149,247020,0.0-3.0-0.31,dynamic,"6,2,3,1",Female,52,3/7/67,English,United States of America,C657532,,,,,,
sound/8star.wav,,audio-keyboard-response,150,248523,0.0-3.0-1.31,dynamic,"6,2,3,1",Female,52,3/7/67,English,United States of America,C657532,,,null,8,407,
,3,html-button-response,151,248936,0.0-3.0-0.32,dynamic,"6,2,3,1",Female,52,3/7/67,English,United States of America,C657532,,,,,,
sound/8star.wav,,audio-keyboard-response,152,250438,0.0-3.0-1.32,dynamic,"6,2,3,1",Female,52,3/7/67,English,United States of America,C657532,,,null,8,415,
,3,html-button-response,153,250786,0.0-3.0-0.33,dynamic,"6,2,3,1",Female,52,3/7/67,English,United States of America,C657532,,,,,,
sound/8star.wav,,audio-keyboard-response,154,252288,0.0-3.0-1.33,dynamic,"6,2,3,1",Female,52,3/7/67,English,United States of America,C657532,,,null,8,423,
,3,html-button-response,155,252653,0.0-3.0-0.34,dynamic,"6,2,3,1",Female,52,3/7/67,English,United States of America,C657532,,,,,,
sound/8star.wav,,audio-keyboard-response,156,254156,0.0-3.0-1.34,dynamic,"6,2,3,1",Female,52,3/7/67,English,United States of America,C657532,,,null,8,431,
,3,html-button-response,157,254466,0.0-3.0-0.35,dynamic,"6,2,3,1",Female,52,3/7/67,English,United States of America,C657532,,,,,,
sound/8star.wav,,audio-keyboard-response,158,255968,0.0-3.0-1.35,dynamic,"6,2,3,1",Female,52,3/7/67,English,United States of America,C657532,,,null,8,439,
,3,html-button-response,159,256406,0.0-3.0-0.36,dynamic,"6,2,3,1",Female,52,3/7/67,English,United States of America,C657532,,,,,,
sound/8star.wav,,audio-keyboard-response,160,257909,0.0-3.0-1.36,dynamic,"6,2,3,1",Female,52,3/7/67,English,United States of America,C657532,,,null,8,447,
,2,html-button-response,161,258602,0.0-3.0-0.37,dynamic,"6,2,3,1",Female,52,3/7/67,English,United States of America,C657532,,,,,,
sound/3star.wav,,audio-keyboard-response,162,260107,0.0-3.0-1.37,dynamic,"6,2,3,1",Female,52,3/7/67,English,United States of America,C657532,,,null,3,450,
,3,html-button-response,163,260494,0.0-3.0-0.38,dynamic,"6,2,3,1",Female,52,3/7/67,English,United States of America,C657532,,,,,,
sound/8star.wav,,audio-keyboard-response,164,261994,0.0-3.0-1.38,dynamic,"6,2,3,1",Female,52,3/7/67,English,United States of America,C657532,,,null,8,458,
,1,html-button-response,165,262512,0.0-3.0-0.39,dynamic,"6,2,3,1",Female,52,3/7/67,English,United States of America,C657532,,,,,,
sound/2star.wav,,audio-keyboard-response,166,264016,0.0-3.0-1.39,dynamic,"6,2,3,1",Female,52,3/7/67,English,United States of America,C657532,,,null,2,460,
sound/celebration.wav,0,audio-button-response,167,268914,0.0-4.0,dynamic,"6,2,3,1",Female,52,3/7/67,English,United States of America,C657532,,,,,,
"Which, if any, of these monsters ever gave you <b>1 star</b>?</p>",3,html-button-response,168,270998,0.0-5.0-0.0,dynamic,"6,2,3,1",Female,52,3/7/67,English,United States of America,C657532,,,,,,correct
"Which, if any, of these monsters ever gave you <b>2 stars</b>?</p>",2,html-button-response,169,273303,0.0-6.0-0.0,dynamic,"6,2,3,1",Female,52,3/7/67,English,United States of America,C657532,,,,,,incorrect
"Which, if any, of these monsters ever gave you <b>3 stars</b>?</p>",1,html-button-response,170,275435,0.0-7.0-0.0,dynamic,"6,2,3,1",Female,52,3/7/67,English,United States of America,C657532,,,,,,incorrect
"Which, if any, of these monsters ever gave you <b>6 stars</b>?</p>",0,html-button-response,171,277768,0.0-8.0-0.0,dynamic,"6,2,3,1",Female,52,3/7/67,English,United States of America,C657532,,,,,,correct
"Which, if any, of these monsters ever gave you <b>8 stars</b>?</p>",3,html-button-response,172,279466,0.0-9.0-0.0,dynamic,"6,2,3,1",Female,52,3/7/67,English,United States of America,C657532,,,,,,correct
Which monster did you like the most?</p>,3,html-button-response,173,281564,0.0-10.0-0.0,dynamic,"6,2,3,1",Female,52,3/7/67,English,United States of America,C657532,,,,,,
,,survey-text,174,311242,0.0-11.0,dynamic,"6,2,3,1",Female,52,3/7/67,English,United States of America,C657532,,"{""Q0"":""Because he was the fastest way to fill the star bar.""}",,,,
stimulus,button_pressed,trial_type,trial_index,time_elapsed,internal_node_id,condition,pointvals_firsthalf,gender,age,dob,language,country,turkcode,animation_sequence,responses,key_press,earnedThis,earnedCumulative,posttest
"<p>Hi! Welcome to the experiment. This study takes the form of a simple decision making task.<br> It is designed to help us learn how children make decisions, so it will look like a kid's game.<br> However, in order to understand how kids make choices, we need to compare what they do to adults<br> doing the same task. That's you! Because of this, we ask you to take the task seriously and do your<br>best, even if the task seems like a strange thing for an adult to do.</p>",0,html-button-response,0,83010,0.0-0.0-0.0-0.0,dynamic,"6,2,1,3",Male,33,8/13/85,English,United States of America,C786384,,,,,,
,,animation,1,95015,0.0-0.0-1.0,dynamic,"6,2,1,3",Male,33,8/13/85,English,United States of America,C786384,"[{""stimulus"":""img/screen1a.png"",""time"":3002},{""stimulus"":""img/screen1b.png"",""time"":6002},{""stimulus"":""img/screen1c.png"",""time"":9001}]",[],,,,
<img src='img/screen1d.png'></img>,0,html-button-response,2,96380,0.0-0.0-2.0,dynamic,"6,2,1,3",Male,33,8/13/85,English,United States of America,C786384,,,,,,
,,animation,3,117182,0.0-0.0-3.0,dynamic,"6,2,1,3",Male,33,8/13/85,English,United States of America,C786384,"[{""stimulus"":""img/screen2.jpg"",""time"":801},{""stimulus"":""img/screen2.jpg"",""time"":1601},{""stimulus"":""img/screen2.jpg"",""time"":2401},{""stimulus"":""img/screen2.jpg"",""time"":3201},{""stimulus"":""img/screen2.jpg"",""time"":4001},{""stimulus"":""img/screen3a.jpg"",""time"":4802},{""stimulus"":""img/screen3b.jpg"",""time"":5601},{""stimulus"":""img/screen3c.jpg"",""time"":6402},{""stimulus"":""img/screen3d.jpg"",""time"":7202},{""stimulus"":""img/screen4a.jpg"",""time"":8002},{""stimulus"":""img/screen4a.jpg"",""time"":8801},{""stimulus"":""img/screen4b.jpg"",""time"":9601},{""stimulus"":""img/screen4c.jpg"",""time"":10401},{""stimulus"":""img/screen4d.jpg"",""time"":11201},{""stimulus"":""img/screen4d.jpg"",""time"":12002},{""stimulus"":""img/screen5a.jpg"",""time"":12801},{""stimulus"":""img/screen5b1.jpg"",""time"":13602},{""stimulus"":""img/screen5b2.jpg"",""time"":14402},{""stimulus"":""img/screen5b3.jpg"",""time"":15202},{""stimulus"":""img/screen5b4.jpg"",""time"":16001},{""stimulus"":""img/screen5b5.jpg"",""time"":16801},{""stimulus"":""img/screen5b6.jpg"",""time"":17601},{""stimulus"":""img/screen5c.jpg"",""time"":18402},{""stimulus"":""img/screen5d.jpg"",""time"":19201},{""stimulus"":""img/screen5d.jpg"",""time"":20002}]",[],,,,
<img src='img/screen5e.jpg'></img>,0,html-button-response,4,135843,0.0-0.0-4.0,dynamic,"6,2,1,3",Male,33,8/13/85,English,United States of America,C786384,,,,,,
,,survey-multi-choice,5,145710,0.0-0.0-5.0,dynamic,"6,2,1,3",Male,33,8/13/85,English,United States of America,C786384,,"{""Q0"":"" You click on the monsters"",""Q1"":"" Because the main study will have children participating""}",,,,
Well done!,0,html-button-response,6,146811,0.0-1.0,dynamic,"6,2,1,3",Male,33,8/13/85,English,United States of America,C786384,,,,,,
,1,html-button-response,7,148320,0.0-2.0-0.0,dynamic,"6,2,1,3",Male,33,8/13/85,English,United States of America,C786384,,,,,,
sound/2star.wav,,audio-keyboard-response,8,149837,0.0-2.0-1.0,dynamic,"6,2,1,3",Male,33,8/13/85,English,United States of America,C786384,,,null,2,2,
,0,html-button-response,9,151386,0.0-2.0-0.1,dynamic,"6,2,1,3",Male,33,8/13/85,English,United States of America,C786384,,,,,,
sound/6star.wav,,audio-keyboard-response,10,152893,0.0-2.0-1.1,dynamic,"6,2,1,3",Male,33,8/13/85,English,United States of America,C786384,,,null,6,8,
,2,html-button-response,11,153469,0.0-2.0-0.2,dynamic,"6,2,1,3",Male,33,8/13/85,English,United States of America,C786384,,,,,,
sound/1star.wav,,audio-keyboard-response,12,154983,0.0-2.0-1.2,dynamic,"6,2,1,3",Male,33,8/13/85,English,United States of America,C786384,,,null,1,9,
,3,html-button-response,13,156905,0.0-2.0-0.3,dynamic,"6,2,1,3",Male,33,8/13/85,English,United States of America,C786384,,,,,,
sound/3star.wav,,audio-keyboard-response,14,158409,0.0-2.0-1.3,dynamic,"6,2,1,3",Male,33,8/13/85,English,United States of America,C786384,,,null,3,12,
,0,html-button-response,15,158874,0.0-2.0-0.4,dynamic,"6,2,1,3",Male,33,8/13/85,English,United States of America,C786384,,,,,,
sound/6star.wav,,audio-keyboard-response,16,160386,0.0-2.0-1.4,dynamic,"6,2,1,3",Male,33,8/13/85,English,United States of America,C786384,,,null,6,18,
,0,html-button-response,17,160785,0.0-2.0-0.5,dynamic,"6,2,1,3",Male,33,8/13/85,English,United States of America,C786384,,,,,,
sound/6star.wav,,audio-keyboard-response,18,162293,0.0-2.0-1.5,dynamic,"6,2,1,3",Male,33,8/13/85,English,United States of America,C786384,,,null,6,24,
,0,html-button-response,19,162667,0.0-2.0-0.6,dynamic,"6,2,1,3",Male,33,8/13/85,English,United States of America,C786384,,,,,,
sound/6star.wav,,audio-keyboard-response,20,164179,0.0-2.0-1.6,dynamic,"6,2,1,3",Male,33,8/13/85,English,United States of America,C786384,,,null,6,30,
,0,html-button-response,21,164566,0.0-2.0-0.7,dynamic,"6,2,1,3",Male,33,8/13/85,English,United States of America,C786384,,,,,,
sound/6star.wav,,audio-keyboard-response,22,166092,0.0-2.0-1.7,dynamic,"6,2,1,3",Male,33,8/13/85,English,United States of America,C786384,,,null,6,36,
,0,html-button-response,23,166485,0.0-2.0-0.8,dynamic,"6,2,1,3",Male,33,8/13/85,English,United States of America,C786384,,,,,,
sound/6star.wav,,audio-keyboard-response,24,168006,0.0-2.0-1.8,dynamic,"6,2,1,3",Male,33,8/13/85,English,United States of America,C786384,,,null,6,42,
,0,html-button-response,25,168399,0.0-2.0-0.9,dynamic,"6,2,1,3",Male,33,8/13/85,English,United States of America,C786384,,,,,,
sound/6star.wav,,audio-keyboard-response,26,169905,0.0-2.0-1.9,dynamic,"6,2,1,3",Male,33,8/13/85,English,United States of America,C786384,,,null,6,48,
,0,html-button-response,27,170761,0.0-2.0-0.10,dynamic,"6,2,1,3",Male,33,8/13/85,English,United States of America,C786384,,,,,,
sound/6star.wav,,audio-keyboard-response,28,172279,0.0-2.0-1.10,dynamic,"6,2,1,3",Male,33,8/13/85,English,United States of America,C786384,,,null,6,54,
,0,html-button-response,29,172685,0.0-2.0-0.11,dynamic,"6,2,1,3",Male,33,8/13/85,English,United States of America,C786384,,,,,,
sound/6star.wav,,audio-keyboard-response,30,174203,0.0-2.0-1.11,dynamic,"6,2,1,3",Male,33,8/13/85,English,United States of America,C786384,,,null,6,60,
,0,html-button-response,31,174566,0.0-2.0-0.12,dynamic,"6,2,1,3",Male,33,8/13/85,English,United States of America,C786384,,,,,,
sound/6star.wav,,audio-keyboard-response,32,176071,0.0-2.0-1.12,dynamic,"6,2,1,3",Male,33,8/13/85,English,United States of America,C786384,,,null,6,66,
,0,html-button-response,33,176422,0.0-2.0-0.13,dynamic,"6,2,1,3",Male,33,8/13/85,English,United States of America,C786384,,,,,,
sound/6star.wav,,audio-keyboard-response,34,177942,0.0-2.0-1.13,dynamic,"6,2,1,3",Male,33,8/13/85,English,United States of America,C786384,,,null,6,72,
,0,html-button-response,35,178296,0.0-2.0-0.14,dynamic,"6,2,1,3",Male,33,8/13/85,English,United States of America,C786384,,,,,,
sound/6star.wav,,audio-keyboard-response,36,179807,0.0-2.0-1.14,dynamic,"6,2,1,3",Male,33,8/13/85,English,United States of America,C786384,,,null,6,78,
,0,html-button-response,37,180287,0.0-2.0-0.15,dynamic,"6,2,1,3",Male,33,8/13/85,English,United States of America,C786384,,,,,,
sound/6star.wav,,audio-keyboard-response,38,181796,0.0-2.0-1.15,dynamic,"6,2,1,3",Male,33,8/13/85,English,United States of America,C786384,,,null,6,84,
,0,html-button-response,39,182215,0.0-2.0-0.16,dynamic,"6,2,1,3",Male,33,8/13/85,English,United States of America,C786384,,,,,,
sound/6star.wav,,audio-keyboard-response,40,183730,0.0-2.0-1.16,dynamic,"6,2,1,3",Male,33,8/13/85,English,United States of America,C786384,,,null,6,90,
,0,html-button-response,41,184166,0.0-2.0-0.17,dynamic,"6,2,1,3",Male,33,8/13/85,English,United States of America,C786384,,,,,,
sound/6star.wav,,audio-keyboard-response,42,185674,0.0-2.0-1.17,dynamic,"6,2,1,3",Male,33,8/13/85,English,United States of America,C786384,,,null,6,96,
,0,html-button-response,43,186093,0.0-2.0-0.18,dynamic,"6,2,1,3",Male,33,8/13/85,English,United States of America,C786384,,,,,,
sound/6star.wav,,audio-keyboard-response,44,187600,0.0-2.0-1.18,dynamic,"6,2,1,3",Male,33,8/13/85,English,United States of America,C786384,,,null,6,102,
,0,html-button-response,45,188031,0.0-2.0-0.19,dynamic,"6,2,1,3",Male,33,8/13/85,English,United States of America,C786384,,,,,,
sound/6star.wav,,audio-keyboard-response,46,189539,0.0-2.0-1.19,dynamic,"6,2,1,3",Male,33,8/13/85,English,United States of America,C786384,,,null,6,108,
,0,html-button-response,47,189949,0.0-2.0-0.20,dynamic,"6,2,1,3",Male,33,8/13/85,English,United States of America,C786384,,,,,,
sound/6star.wav,,audio-keyboard-response,48,191486,0.0-2.0-1.20,dynamic,"6,2,1,3",Male,33,8/13/85,English,United States of America,C786384,,,null,6,114,
,0,html-button-response,49,192326,0.0-2.0-0.21,dynamic,"6,2,1,3",Male,33,8/13/85,English,United States of America,C786384,,,,,,
sound/6star.wav,,audio-keyboard-response,50,193839,0.0-2.0-1.21,dynamic,"6,2,1,3",Male,33,8/13/85,English,United States of America,C786384,,,null,6,120,
,0,html-button-response,51,194252,0.0-2.0-0.22,dynamic,"6,2,1,3",Male,33,8/13/85,English,United States of America,C786384,,,,,,
sound/6star.wav,,audio-keyboard-response,52,195765,0.0-2.0-1.22,dynamic,"6,2,1,3",Male,33,8/13/85,English,United States of America,C786384,,,null,6,126,
,0,html-button-response,53,196141,0.0-2.0-0.23,dynamic,"6,2,1,3",Male,33,8/13/85,English,United States of America,C786384,,,,,,
sound/6star.wav,,audio-keyboard-response,54,197656,0.0-2.0-1.23,dynamic,"6,2,1,3",Male,33,8/13/85,English,United States of America,C786384,,,null,6,132,
,0,html-button-response,55,197910,0.0-2.0-0.24,dynamic,"6,2,1,3",Male,33,8/13/85,English,United States of America,C786384,,,,,,
sound/6star.wav,,audio-keyboard-response,56,199422,0.0-2.0-1.24,dynamic,"6,2,1,3",Male,33,8/13/85,English,United States of America,C786384,,,null,6,138,
,0,html-button-response,57,199808,0.0-2.0-0.25,dynamic,"6,2,1,3",Male,33,8/13/85,English,United States of America,C786384,,,,,,
sound/6star.wav,,audio-keyboard-response,58,201322,0.0-2.0-1.25,dynamic,"6,2,1,3",Male,33,8/13/85,English,United States of America,C786384,,,null,6,144,
,0,html-button-response,59,201576,0.0-2.0-0.26,dynamic,"6,2,1,3",Male,33,8/13/85,English,United States of America,C786384,,,,,,
sound/6star.wav,,audio-keyboard-response,60,203079,0.0-2.0-1.26,dynamic,"6,2,1,3",Male,33,8/13/85,English,United States of America,C786384,,,null,6,150,
,0,html-button-response,61,203671,0.0-2.0-0.27,dynamic,"6,2,1,3",Male,33,8/13/85,English,United States of America,C786384,,,,,,
sound/6star.wav,,audio-keyboard-response,62,205184,0.0-2.0-1.27,dynamic,"6,2,1,3",Male,33,8/13/85,English,United States of America,C786384,,,null,6,156,
,0,html-button-response,63,214833,0.0-2.0-0.28,dynamic,"6,2,1,3",Male,33,8/13/85,English,United States of America,C786384,,,,,,
sound/6star.wav,,audio-keyboard-response,64,216343,0.0-2.0-1.28,dynamic,"6,2,1,3",Male,33,8/13/85,English,United States of America,C786384,,,null,6,162,
,0,html-button-response,65,216464,0.0-2.0-0.29,dynamic,"6,2,1,3",Male,33,8/13/85,English,United States of America,C786384,,,,,,
sound/6star.wav,,audio-keyboard-response,66,217981,0.0-2.0-1.29,dynamic,"6,2,1,3",Male,33,8/13/85,English,United States of America,C786384,,,null,6,168,
,0,html-button-response,67,218392,0.0-2.0-0.30,dynamic,"6,2,1,3",Male,33,8/13/85,English,United States of America,C786384,,,,,,
sound/6star.wav,,audio-keyboard-response,68,219902,0.0-2.0-1.30,dynamic,"6,2,1,3",Male,33,8/13/85,English,United States of America,C786384,,,null,6,174,
,0,html-button-response,69,220531,0.0-2.0-0.31,dynamic,"6,2,1,3",Male,33,8/13/85,English,United States of America,C786384,,,,,,
sound/6star.wav,,audio-keyboard-response,70,222042,0.0-2.0-1.31,dynamic,"6,2,1,3",Male,33,8/13/85,English,United States of America,C786384,,,null,6,180,
,0,html-button-response,71,222422,0.0-2.0-0.32,dynamic,"6,2,1,3",Male,33,8/13/85,English,United States of America,C786384,,,,,,
sound/6star.wav,,audio-keyboard-response,72,223938,0.0-2.0-1.32,dynamic,"6,2,1,3",Male,33,8/13/85,English,United States of America,C786384,,,null,6,186,
,0,html-button-response,73,224234,0.0-2.0-0.33,dynamic,"6,2,1,3",Male,33,8/13/85,English,United States of America,C786384,,,,,,
sound/6star.wav,,audio-keyboard-response,74,225738,0.0-2.0-1.33,dynamic,"6,2,1,3",Male,33,8/13/85,English,United States of America,C786384,,,null,6,192,
,0,html-button-response,75,233916,0.0-2.0-0.34,dynamic,"6,2,1,3",Male,33,8/13/85,English,United States of America,C786384,,,,,,
sound/6star.wav,,audio-keyboard-response,76,235428,0.0-2.0-1.34,dynamic,"6,2,1,3",Male,33,8/13/85,English,United States of America,C786384,,,null,6,198,
,0,html-button-response,77,236098,0.0-2.0-0.35,dynamic,"6,2,1,3",Male,33,8/13/85,English,United States of America,C786384,,,,,,
sound/6star.wav,,audio-keyboard-response,78,237612,0.0-2.0-1.35,dynamic,"6,2,1,3",Male,33,8/13/85,English,United States of America,C786384,,,null,6,204,
,0,html-button-response,79,237834,0.0-2.0-0.36,dynamic,"6,2,1,3",Male,33,8/13/85,English,United States of America,C786384,,,,,,
sound/6star.wav,,audio-keyboard-response,80,239340,0.0-2.0-1.36,dynamic,"6,2,1,3",Male,33,8/13/85,English,United States of America,C786384,,,null,6,210,
,0,html-button-response,81,239750,0.0-2.0-0.37,dynamic,"6,2,1,3",Male,33,8/13/85,English,United States of America,C786384,,,,,,
sound/6star.wav,,audio-keyboard-response,82,241345,0.0-2.0-1.37,dynamic,"6,2,1,3",Male,33,8/13/85,English,United States of America,C786384,,,null,6,216,
,0,html-button-response,83,241574,0.0-2.0-0.38,dynamic,"6,2,1,3",Male,33,8/13/85,English,United States of America,C786384,,,,,,
sound/6star.wav,,audio-keyboard-response,84,243088,0.0-2.0-1.38,dynamic,"6,2,1,3",Male,33,8/13/85,English,United States of America,C786384,,,null,6,222,
,0,html-button-response,85,243457,0.0-2.0-0.39,dynamic,"6,2,1,3",Male,33,8/13/85,English,United States of America,C786384,,,,,,
sound/6star.wav,,audio-keyboard-response,86,244965,0.0-2.0-1.39,dynamic,"6,2,1,3",Male,33,8/13/85,English,United States of America,C786384,,,null,6,228,
,0,html-button-response,87,245274,0.0-3.0-0.0,dynamic,"6,2,1,3",Male,33,8/13/85,English,United States of America,C786384,,,,,,
sound/6star.wav,,audio-keyboard-response,88,246789,0.0-3.0-1.0,dynamic,"6,2,1,3",Male,33,8/13/85,English,United States of America,C786384,,,null,6,234,
,0,html-button-response,89,247240,0.0-3.0-0.1,dynamic,"6,2,1,3",Male,33,8/13/85,English,United States of America,C786384,,,,,,
sound/6star.wav,,audio-keyboard-response,90,248759,0.0-3.0-1.1,dynamic,"6,2,1,3",Male,33,8/13/85,English,United States of America,C786384,,,null,6,240,
,0,html-button-response,91,249131,0.0-3.0-0.2,dynamic,"6,2,1,3",Male,33,8/13/85,English,United States of America,C786384,,,,,,
sound/6star.wav,,audio-keyboard-response,92,250646,0.0-3.0-1.2,dynamic,"6,2,1,3",Male,33,8/13/85,English,United States of America,C786384,,,null,6,246,
,0,html-button-response,93,251040,0.0-3.0-0.3,dynamic,"6,2,1,3",Male,33,8/13/85,English,United States of America,C786384,,,,,,
sound/6star.wav,,audio-keyboard-response,94,252555,0.0-3.0-1.3,dynamic,"6,2,1,3",Male,33,8/13/85,English,United States of America,C786384,,,null,6,252,
,0,html-button-response,95,253154,0.0-3.0-0.4,dynamic,"6,2,1,3",Male,33,8/13/85,English,United States of America,C786384,,,,,,
sound/6star.wav,,audio-keyboard-response,96,254664,0.0-3.0-1.4,dynamic,"6,2,1,3",Male,33,8/13/85,English,United States of America,C786384,,,null,6,258,
,0,html-button-response,97,255077,0.0-3.0-0.5,dynamic,"6,2,1,3",Male,33,8/13/85,English,United States of America,C786384,,,,,,
sound/6star.wav,,audio-keyboard-response,98,256591,0.0-3.0-1.5,dynamic,"6,2,1,3",Male,33,8/13/85,English,United States of America,C786384,,,null,6,264,
,0,html-button-response,99,256983,0.0-3.0-0.6,dynamic,"6,2,1,3",Male,33,8/13/85,English,United States of America,C786384,,,,,,
sound/6star.wav,,audio-keyboard-response,100,258498,0.0-3.0-1.6,dynamic,"6,2,1,3",Male,33,8/13/85,English,United States of America,C786384,,,null,6,270,
,0,html-button-response,101,258904,0.0-3.0-0.7,dynamic,"6,2,1,3",Male,33,8/13/85,English,United States of America,C786384,,,,,,
sound/6star.wav,,audio-keyboard-response,102,260421,0.0-3.0-1.7,dynamic,"6,2,1,3",Male,33,8/13/85,English,United States of America,C786384,,,null,6,276,
,0,html-button-response,103,260596,0.0-3.0-0.8,dynamic,"6,2,1,3",Male,33,8/13/85,English,United States of America,C786384,,,,,,
sound/6star.wav,,audio-keyboard-response,104,262110,0.0-3.0-1.8,dynamic,"6,2,1,3",Male,33,8/13/85,English,United States of America,C786384,,,null,6,282,
,0,html-button-response,105,262607,0.0-3.0-0.9,dynamic,"6,2,1,3",Male,33,8/13/85,English,United States of America,C786384,,,,,,
sound/6star.wav,,audio-keyboard-response,106,264118,0.0-3.0-1.9,dynamic,"6,2,1,3",Male,33,8/13/85,English,United States of America,C786384,,,null,6,288,
,0,html-button-response,107,264469,0.0-3.0-0.10,dynamic,"6,2,1,3",Male,33,8/13/85,English,United States of America,C786384,,,,,,
sound/6star.wav,,audio-keyboard-response,108,265976,0.0-3.0-1.10,dynamic,"6,2,1,3",Male,33,8/13/85,English,United States of America,C786384,,,null,6,294,
,0,html-button-response,109,266250,0.0-3.0-0.11,dynamic,"6,2,1,3",Male,33,8/13/85,English,United States of America,C786384,,,,,,
sound/6star.wav,,audio-keyboard-response,110,267765,0.0-3.0-1.11,dynamic,"6,2,1,3",Male,33,8/13/85,English,United States of America,C786384,,,null,6,300,
,0,html-button-response,111,268120,0.0-3.0-0.12,dynamic,"6,2,1,3",Male,33,8/13/85,English,United States of America,C786384,,,,,,
sound/6star.wav,,audio-keyboard-response,112,269630,0.0-3.0-1.12,dynamic,"6,2,1,3",Male,33,8/13/85,English,United States of America,C786384,,,null,6,306,
,0,html-button-response,113,270070,0.0-3.0-0.13,dynamic,"6,2,1,3",Male,33,8/13/85,English,United States of America,C786384,,,,,,
sound/6star.wav,,audio-keyboard-response,114,271581,0.0-3.0-1.13,dynamic,"6,2,1,3",Male,33,8/13/85,English,United States of America,C786384,,,null,6,312,
,0,html-button-response,115,272097,0.0-3.0-0.14,dynamic,"6,2,1,3",Male,33,8/13/85,English,United States of America,C786384,,,,,,
sound/6star.wav,,audio-keyboard-response,116,273608,0.0-3.0-1.14,dynamic,"6,2,1,3",Male,33,8/13/85,English,United States of America,C786384,,,null,6,318,
,0,html-button-response,117,274146,0.0-3.0-0.15,dynamic,"6,2,1,3",Male,33,8/13/85,English,United States of America,C786384,,,,,,
sound/6star.wav,,audio-keyboard-response,118,275663,0.0-3.0-1.15,dynamic,"6,2,1,3",Male,33,8/13/85,English,United States of America,C786384,,,null,6,324,
,0,html-button-response,119,278613,0.0-3.0-0.16,dynamic,"6,2,1,3",Male,33,8/13/85,English,United States of America,C786384,,,,,,
sound/6star.wav,,audio-keyboard-response,120,280116,0.0-3.0-1.16,dynamic,"6,2,1,3",Male,33,8/13/85,English,United States of America,C786384,,,null,6,330,
,0,html-button-response,121,280568,0.0-3.0-0.17,dynamic,"6,2,1,3",Male,33,8/13/85,English,United States of America,C786384,,,,,,
sound/6star.wav,,audio-keyboard-response,122,282087,0.0-3.0-1.17,dynamic,"6,2,1,3",Male,33,8/13/85,English,United States of America,C786384,,,null,6,336,
,0,html-button-response,123,282724,0.0-3.0-0.18,dynamic,"6,2,1,3",Male,33,8/13/85,English,United States of America,C786384,,,,,,
sound/6star.wav,,audio-keyboard-response,124,284232,0.0-3.0-1.18,dynamic,"6,2,1,3",Male,33,8/13/85,English,United States of America,C786384,,,null,6,342,
,0,html-button-response,125,299348,0.0-3.0-0.19,dynamic,"6,2,1,3",Male,33,8/13/85,English,United States of America,C786384,,,,,,
sound/6star.wav,,audio-keyboard-response,126,300864,0.0-3.0-1.19,dynamic,"6,2,1,3",Male,33,8/13/85,English,United States of America,C786384,,,null,6,348,
,0,html-button-response,127,301215,0.0-3.0-0.20,dynamic,"6,2,1,3",Male,33,8/13/85,English,United States of America,C786384,,,,,,
sound/6star.wav,,audio-keyboard-response,128,302730,0.0-3.0-1.20,dynamic,"6,2,1,3",Male,33,8/13/85,English,United States of America,C786384,,,null,6,354,
,0,html-button-response,129,303558,0.0-3.0-0.21,dynamic,"6,2,1,3",Male,33,8/13/85,English,United States of America,C786384,,,,,,
sound/6star.wav,,audio-keyboard-response,130,305075,0.0-3.0-1.21,dynamic,"6,2,1,3",Male,33,8/13/85,English,United States of America,C786384,,,null,6,360,
,0,html-button-response,131,305211,0.0-3.0-0.22,dynamic,"6,2,1,3",Male,33,8/13/85,English,United States of America,C786384,,,,,,
sound/6star.wav,,audio-keyboard-response,132,306723,0.0-3.0-1.22,dynamic,"6,2,1,3",Male,33,8/13/85,English,United States of America,C786384,,,null,6,366,
,0,html-button-response,133,307009,0.0-3.0-0.23,dynamic,"6,2,1,3",Male,33,8/13/85,English,United States of America,C786384,,,,,,
sound/6star.wav,,audio-keyboard-response,134,308518,0.0-3.0-1.23,dynamic,"6,2,1,3",Male,33,8/13/85,English,United States of America,C786384,,,null,6,372,
,0,html-button-response,135,308909,0.0-3.0-0.24,dynamic,"6,2,1,3",Male,33,8/13/85,English,United States of America,C786384,,,,,,
sound/6star.wav,,audio-keyboard-response,136,310423,0.0-3.0-1.24,dynamic,"6,2,1,3",Male,33,8/13/85,English,United States of America,C786384,,,null,6,378,
,0,html-button-response,137,310908,0.0-3.0-0.25,dynamic,"6,2,1,3",Male,33,8/13/85,English,United States of America,C786384,,,,,,
sound/6star.wav,,audio-keyboard-response,138,312417,0.0-3.0-1.25,dynamic,"6,2,1,3",Male,33,8/13/85,English,United States of America,C786384,,,null,6,384,
,0,html-button-response,139,312991,0.0-3.0-0.26,dynamic,"6,2,1,3",Male,33,8/13/85,English,United States of America,C786384,,,,,,
sound/6star.wav,,audio-keyboard-response,140,314498,0.0-3.0-1.26,dynamic,"6,2,1,3",Male,33,8/13/85,English,United States of America,C786384,,,null,6,390,
,0,html-button-response,141,314865,0.0-3.0-0.27,dynamic,"6,2,1,3",Male,33,8/13/85,English,United States of America,C786384,,,,,,
sound/6star.wav,,audio-keyboard-response,142,316381,0.0-3.0-1.27,dynamic,"6,2,1,3",Male,33,8/13/85,English,United States of America,C786384,,,null,6,396,
,0,html-button-response,143,316811,0.0-3.0-0.28,dynamic,"6,2,1,3",Male,33,8/13/85,English,United States of America,C786384,,,,,,
sound/6star.wav,,audio-keyboard-response,144,318318,0.0-3.0-1.28,dynamic,"6,2,1,3",Male,33,8/13/85,English,United States of America,C786384,,,null,6,402,
,0,html-button-response,145,318677,0.0-3.0-0.29,dynamic,"6,2,1,3",Male,33,8/13/85,English,United States of America,C786384,,,,,,
sound/6star.wav,,audio-keyboard-response,146,320184,0.0-3.0-1.29,dynamic,"6,2,1,3",Male,33,8/13/85,English,United States of America,C786384,,,null,6,408,
,0,html-button-response,147,328668,0.0-3.0-0.30,dynamic,"6,2,1,3",Male,33,8/13/85,English,United States of America,C786384,,,,,,
sound/6star.wav,,audio-keyboard-response,148,330187,0.0-3.0-1.30,dynamic,"6,2,1,3",Male,33,8/13/85,English,United States of America,C786384,,,null,6,414,
,0,html-button-response,149,330430,0.0-3.0-0.31,dynamic,"6,2,1,3",Male,33,8/13/85,English,United States of America,C786384,,,,,,
sound/6star.wav,,audio-keyboard-response,150,331942,0.0-3.0-1.31,dynamic,"6,2,1,3",Male,33,8/13/85,English,United States of America,C786384,,,null,6,420,
,0,html-button-response,151,332315,0.0-3.0-0.32,dynamic,"6,2,1,3",Male,33,8/13/85,English,United States of America,C786384,,,,,,
sound/6star.wav,,audio-keyboard-response,152,333834,0.0-3.0-1.32,dynamic,"6,2,1,3",Male,33,8/13/85,English,United States of America,C786384,,,null,6,426,
,0,html-button-response,153,334069,0.0-3.0-0.33,dynamic,"6,2,1,3",Male,33,8/13/85,English,United States of America,C786384,,,,,,
sound/6star.wav,,audio-keyboard-response,154,335581,0.0-3.0-1.33,dynamic,"6,2,1,3",Male,33,8/13/85,English,United States of America,C786384,,,null,6,432,
,0,html-button-response,155,335796,0.0-3.0-0.34,dynamic,"6,2,1,3",Male,33,8/13/85,English,United States of America,C786384,,,,,,
sound/6star.wav,,audio-keyboard-response,156,337308,0.0-3.0-1.34,dynamic,"6,2,1,3",Male,33,8/13/85,English,United States of America,C786384,,,null,6,438,
,0,html-button-response,157,337453,0.0-3.0-0.35,dynamic,"6,2,1,3",Male,33,8/13/85,English,United States of America,C786384,,,,,,
sound/6star.wav,,audio-keyboard-response,158,338971,0.0-3.0-1.35,dynamic,"6,2,1,3",Male,33,8/13/85,English,United States of America,C786384,,,null,6,444,
,0,html-button-response,159,339309,0.0-3.0-0.36,dynamic,"6,2,1,3",Male,33,8/13/85,English,United States of America,C786384,,,,,,
sound/6star.wav,,audio-keyboard-response,160,340818,0.0-3.0-1.36,dynamic,"6,2,1,3",Male,33,8/13/85,English,United States of America,C786384,,,null,6,450,
,0,html-button-response,161,341159,0.0-3.0-0.37,dynamic,"6,2,1,3",Male,33,8/13/85,English,United States of America,C786384,,,,,,
sound/6star.wav,,audio-keyboard-response,162,342669,0.0-3.0-1.37,dynamic,"6,2,1,3",Male,33,8/13/85,English,United States of America,C786384,,,null,6,456,
,0,html-button-response,163,343053,0.0-3.0-0.38,dynamic,"6,2,1,3",Male,33,8/13/85,English,United States of America,C786384,,,,,,
sound/6star.wav,,audio-keyboard-response,164,344559,0.0-3.0-1.38,dynamic,"6,2,1,3",Male,33,8/13/85,English,United States of America,C786384,,,null,6,462,
,0,html-button-response,165,344734,0.0-3.0-0.39,dynamic,"6,2,1,3",Male,33,8/13/85,English,United States of America,C786384,,,,,,
sound/6star.wav,,audio-keyboard-response,166,346242,0.0-3.0-1.39,dynamic,"6,2,1,3",Male,33,8/13/85,English,United States of America,C786384,,,null,6,468,
sound/celebration.wav,0,audio-button-response,167,354057,0.0-4.0,dynamic,"6,2,1,3",Male,33,8/13/85,English,United States of America,C786384,,,,,,
"Which, if any, of these monsters ever gave you <b>1 star</b>?</p>",2,html-button-response,168,360336,0.0-5.0-0.0,dynamic,"6,2,1,3",Male,33,8/13/85,English,United States of America,C786384,,,,,,correct
"Which, if any, of these monsters ever gave you <b>2 stars</b>?</p>",3,html-button-response,169,365031,0.0-6.0-0.0,dynamic,"6,2,1,3",Male,33,8/13/85,English,United States of America,C786384,,,,,,incorrect
"Which, if any, of these monsters ever gave you <b>3 stars</b>?</p>",1,html-button-response,170,366565,0.0-7.0-0.0,dynamic,"6,2,1,3",Male,33,8/13/85,English,United States of America,C786384,,,,,,incorrect
"Which, if any, of these monsters ever gave you <b>6 stars</b>?</p>",0,html-button-response,171,368304,0.0-8.0-0.0,dynamic,"6,2,1,3",Male,33,8/13/85,English,United States of America,C786384,,,,,,correct
"Which, if any, of these monsters ever gave you <b>8 stars</b>?</p>",4,html-button-response,172,371265,0.0-9.0-0.0,dynamic,"6,2,1,3",Male,33,8/13/85,English,United States of America,C786384,,,,,,incorrect
Which monster did you like the most?</p>,0,html-button-response,173,374264,0.0-10.0-0.0,dynamic,"6,2,1,3",Male,33,8/13/85,English,United States of America,C786384,,,,,,
,,survey-text,174,389527,0.0-11.0,dynamic,"6,2,1,3",Male,33,8/13/85,English,United States of America,C786384,,"{""Q0"":""Because it gave the most stars (6).""}",,,,
stimulus,button_pressed,trial_type,trial_index,time_elapsed,internal_node_id,condition,pointvals_firsthalf,gender,age,dob,language,country,turkcode,animation_sequence,responses,key_press,earnedThis,earnedCumulative,posttest
"<p>Hi! Welcome to the experiment. This study takes the form of a simple decision making task.<br> It is designed to help us learn how children make decisions, so it will look like a kid's game.<br> However, in order to understand how kids make choices, we need to compare what they do to adults<br> doing the same task. That's you! Because of this, we ask you to take the task seriously and do your<br>best, even if the task seems like a strange thing for an adult to do.</p>",0,html-button-response,0,3798,0.0-0.0-0.0-0.0,dynamic,"3,2,6,1",Male,30,1/6/89,English,United States of America,C998204,,,,,,
,,animation,1,15800,0.0-0.0-1.0,dynamic,"3,2,6,1",Male,30,1/6/89,English,United States of America,C998204,"[{""stimulus"":""img/screen1a.png"",""time"":3001},{""stimulus"":""img/screen1b.png"",""time"":6002},{""stimulus"":""img/screen1c.png"",""time"":9001}]",[],,,,
<img src='img/screen1d.png'></img>,0,html-button-response,2,17682,0.0-0.0-2.0,dynamic,"3,2,6,1",Male,30,1/6/89,English,United States of America,C998204,,,,,,
,,animation,3,38484,0.0-0.0-3.0,dynamic,"3,2,6,1",Male,30,1/6/89,English,United States of America,C998204,"[{""stimulus"":""img/screen2.jpg"",""time"":801},{""stimulus"":""img/screen2.jpg"",""time"":1602},{""stimulus"":""img/screen2.jpg"",""time"":2402},{""stimulus"":""img/screen2.jpg"",""time"":3201},{""stimulus"":""img/screen2.jpg"",""time"":4001},{""stimulus"":""img/screen3a.jpg"",""time"":4803},{""stimulus"":""img/screen3b.jpg"",""time"":5602},{""stimulus"":""img/screen3c.jpg"",""time"":6401},{""stimulus"":""img/screen3d.jpg"",""time"":7201},{""stimulus"":""img/screen4a.jpg"",""time"":8002},{""stimulus"":""img/screen4a.jpg"",""time"":8802},{""stimulus"":""img/screen4b.jpg"",""time"":9602},{""stimulus"":""img/screen4c.jpg"",""time"":10401},{""stimulus"":""img/screen4d.jpg"",""time"":11201},{""stimulus"":""img/screen4d.jpg"",""time"":12001},{""stimulus"":""img/screen5a.jpg"",""time"":12802},{""stimulus"":""img/screen5b1.jpg"",""time"":13601},{""stimulus"":""img/screen5b2.jpg"",""time"":14401},{""stimulus"":""img/screen5b3.jpg"",""time"":15201},{""stimulus"":""img/screen5b4.jpg"",""time"":16002},{""stimulus"":""img/screen5b5.jpg"",""time"":16802},{""stimulus"":""img/screen5b6.jpg"",""time"":17602},{""stimulus"":""img/screen5c.jpg"",""time"":18401},{""stimulus"":""img/screen5d.jpg"",""time"":19202},{""stimulus"":""img/screen5d.jpg"",""time"":20003}]",[],,,,
<img src='img/screen5e.jpg'></img>,0,html-button-response,4,159382,0.0-0.0-4.0,dynamic,"3,2,6,1",Male,30,1/6/89,English,United States of America,C998204,,,,,,
,,survey-multi-choice,5,165862,0.0-0.0-5.0,dynamic,"3,2,6,1",Male,30,1/6/89,English,United States of America,C998204,,"{""Q0"":"" You click on the monsters"",""Q1"":"" Something else""}",,,,
Oh no! One of your answers was incorrect. Let's try again.,0,html-button-response,6,167032,0.0-0.0-6.0-0.0,dynamic,"3,2,6,1",Male,30,1/6/89,English,United States of America,C998204,,,,,,
"<p>Hi! Welcome to the experiment. This study takes the form of a simple decision making task.<br> It is designed to help us learn how children make decisions, so it will look like a kid's game.<br> However, in order to understand how kids make choices, we need to compare what they do to adults<br> doing the same task. That's you! Because of this, we ask you to take the task seriously and do your<br>best, even if the task seems like a strange thing for an adult to do.</p>",0,html-button-response,7,173265,0.0-0.1-0.1-0.1,dynamic,"3,2,6,1",Male,30,1/6/89,English,United States of America,C998204,,,,,,
,,animation,8,185266,0.0-0.1-1.1,dynamic,"3,2,6,1",Male,30,1/6/89,English,United States of America,C998204,"[{""stimulus"":""img/screen1a.png"",""time"":3001},{""stimulus"":""img/screen1b.png"",""time"":6001},{""stimulus"":""img/screen1c.png"",""time"":9002}]",[],,,,
<img src='img/screen1d.png'></img>,0,html-button-response,9,186042,0.0-0.1-2.1,dynamic,"3,2,6,1",Male,30,1/6/89,English,United States of America,C998204,,,,,,
,,animation,10,206842,0.0-0.1-3.1,dynamic,"3,2,6,1",Male,30,1/6/89,English,United States of America,C998204,"[{""stimulus"":""img/screen2.jpg"",""time"":801},{""stimulus"":""img/screen2.jpg"",""time"":1602},{""stimulus"":""img/screen2.jpg"",""time"":2401},{""stimulus"":""img/screen2.jpg"",""time"":3201},{""stimulus"":""img/screen2.jpg"",""time"":4001},{""stimulus"":""img/screen3a.jpg"",""time"":4801},{""stimulus"":""img/screen3b.jpg"",""time"":5602},{""stimulus"":""img/screen3c.jpg"",""time"":6401},{""stimulus"":""img/screen3d.jpg"",""time"":7202},{""stimulus"":""img/screen4a.jpg"",""time"":8002},{""stimulus"":""img/screen4a.jpg"",""time"":8801},{""stimulus"":""img/screen4b.jpg"",""time"":9601},{""stimulus"":""img/screen4c.jpg"",""time"":10401},{""stimulus"":""img/screen4d.jpg"",""time"":11203},{""stimulus"":""img/screen4d.jpg"",""time"":12002},{""stimulus"":""img/screen5a.jpg"",""time"":12801},{""stimulus"":""img/screen5b1.jpg"",""time"":13602},{""stimulus"":""img/screen5b2.jpg"",""time"":14401},{""stimulus"":""img/screen5b3.jpg"",""time"":15201},{""stimulus"":""img/screen5b4.jpg"",""time"":16002},{""stimulus"":""img/screen5b5.jpg"",""time"":16803},{""stimulus"":""img/screen5b6.jpg"",""time"":17602},{""stimulus"":""img/screen5c.jpg"",""time"":18401},{""stimulus"":""img/screen5d.jpg"",""time"":19201},{""stimulus"":""img/screen5d.jpg"",""time"":20002}]",[],,,,
<img src='img/screen5e.jpg'></img>,0,html-button-response,11,210144,0.0-0.1-4.1,dynamic,"3,2,6,1",Male,30,1/6/89,English,United States of America,C998204,,,,,,
,,survey-multi-choice,12,216289,0.0-0.1-5.1,dynamic,"3,2,6,1",Male,30,1/6/89,English,United States of America,C998204,,"{""Q0"":"" You click on the star picture"",""Q1"":"" Something else""}",,,,
Oh no! One of your answers was incorrect. Let's try again.,0,html-button-response,13,217281,0.0-0.1-6.1-0.1,dynamic,"3,2,6,1",Male,30,1/6/89,English,United States of America,C998204,,,,,,
"<p>Hi! Welcome to the experiment. This study takes the form of a simple decision making task.<br> It is designed to help us learn how children make decisions, so it will look like a kid's game.<br> However, in order to understand how kids make choices, we need to compare what they do to adults<br> doing the same task. That's you! Because of this, we ask you to take the task seriously and do your<br>best, even if the task seems like a strange thing for an adult to do.</p>",0,html-button-response,14,220170,0.0-0.2-0.2-0.2,dynamic,"3,2,6,1",Male,30,1/6/89,English,United States of America,C998204,,,,,,
,,animation,15,232171,0.0-0.2-1.2,dynamic,"3,2,6,1",Male,30,1/6/89,English,United States of America,C998204,"[{""stimulus"":""img/screen1a.png"",""time"":3002},{""stimulus"":""img/screen1b.png"",""time"":6002},{""stimulus"":""img/screen1c.png"",""time"":9001}]",[],,,,
<img src='img/screen1d.png'></img>,0,html-button-response,16,234272,0.0-0.2-2.2,dynamic,"3,2,6,1",Male,30,1/6/89,English,United States of America,C998204,,,,,,
,,animation,17,255074,0.0-0.2-3.2,dynamic,"3,2,6,1",Male,30,1/6/89,English,United States of America,C998204,"[{""stimulus"":""img/screen2.jpg"",""time"":802},{""stimulus"":""img/screen2.jpg"",""time"":1602},{""stimulus"":""img/screen2.jpg"",""time"":2402},{""stimulus"":""img/screen2.jpg"",""time"":3220},{""stimulus"":""img/screen2.jpg"",""time"":4003},{""stimulus"":""img/screen3a.jpg"",""time"":4801},{""stimulus"":""img/screen3b.jpg"",""time"":5601},{""stimulus"":""img/screen3c.jpg"",""time"":6402},{""stimulus"":""img/screen3d.jpg"",""time"":7203},{""stimulus"":""img/screen4a.jpg"",""time"":8001},{""stimulus"":""img/screen4a.jpg"",""time"":8801},{""stimulus"":""img/screen4b.jpg"",""time"":9601},{""stimulus"":""img/screen4c.jpg"",""time"":10402},{""stimulus"":""img/screen4d.jpg"",""time"":11201},{""stimulus"":""img/screen4d.jpg"",""time"":12001},{""stimulus"":""img/screen5a.jpg"",""time"":12801},{""stimulus"":""img/screen5b1.jpg"",""time"":13602},{""stimulus"":""img/screen5b2.jpg"",""time"":14402},{""stimulus"":""img/screen5b3.jpg"",""time"":15201},{""stimulus"":""img/screen5b4.jpg"",""time"":16001},{""stimulus"":""img/screen5b5.jpg"",""time"":16803},{""stimulus"":""img/screen5b6.jpg"",""time"":17601},{""stimulus"":""img/screen5c.jpg"",""time"":18401},{""stimulus"":""img/screen5d.jpg"",""time"":19201},{""stimulus"":""img/screen5d.jpg"",""time"":20001}]",[],,,,
<img src='img/screen5e.jpg'></img>,0,html-button-response,18,266909,0.0-0.2-4.2,dynamic,"3,2,6,1",Male,30,1/6/89,English,United States of America,C998204,,,,,,
,,survey-multi-choice,19,275760,0.0-0.2-5.2,dynamic,"3,2,6,1",Male,30,1/6/89,English,United States of America,C998204,,"{""Q0"":"" You click on the monsters"",""Q1"":"" Because the main study will have children participating""}",,,,
Well done!,0,html-button-response,20,276742,0.0-1.0,dynamic,"3,2,6,1",Male,30,1/6/89,English,United States of America,C998204,,,,,,
,0,html-button-response,21,278852,0.0-2.0-0.0,dynamic,"3,2,6,1",Male,30,1/6/89,English,United States of America,C998204,,,,,,
sound/3star.wav,,audio-keyboard-response,22,280355,0.0-2.0-1.0,dynamic,"3,2,6,1",Male,30,1/6/89,English,United States of America,C998204,,,null,3,3,
,1,html-button-response,23,281126,0.0-2.0-0.1,dynamic,"3,2,6,1",Male,30,1/6/89,English,United States of America,C998204,,,,,,
sound/2star.wav,,audio-keyboard-response,24,282629,0.0-2.0-1.1,dynamic,"3,2,6,1",Male,30,1/6/89,English,United States of America,C998204,,,null,2,5,
,2,html-button-response,25,283047,0.0-2.0-0.2,dynamic,"3,2,6,1",Male,30,1/6/89,English,United States of America,C998204,,,,,,
sound/6star.wav,,audio-keyboard-response,26,284551,0.0-2.0-1.2,dynamic,"3,2,6,1",Male,30,1/6/89,English,United States of America,C998204,,,null,6,11,
,3,html-button-response,27,285038,0.0-2.0-0.3,dynamic,"3,2,6,1",Male,30,1/6/89,English,United States of America,C998204,,,,,,
sound/1star.wav,,audio-keyboard-response,28,286541,0.0-2.0-1.3,dynamic,"3,2,6,1",Male,30,1/6/89,English,United States of America,C998204,,,null,1,12,
,2,html-button-response,29,286918,0.0-2.0-0.4,dynamic,"3,2,6,1",Male,30,1/6/89,English,United States of America,C998204,,,,,,
sound/6star.wav,,audio-keyboard-response,30,288421,0.0-2.0-1.4,dynamic,"3,2,6,1",Male,30,1/6/89,English,United States of America,C998204,,,null,6,18,
,2,html-button-response,31,288778,0.0-2.0-0.5,dynamic,"3,2,6,1",Male,30,1/6/89,English,United States of America,C998204,,,,,,
sound/6star.wav,,audio-keyboard-response,32,290281,0.0-2.0-1.5,dynamic,"3,2,6,1",Male,30,1/6/89,English,United States of America,C998204,,,null,6,24,
,2,html-button-response,33,290611,0.0-2.0-0.6,dynamic,"3,2,6,1",Male,30,1/6/89,English,United States of America,C998204,,,,,,
sound/6star.wav,,audio-keyboard-response,34,292116,0.0-2.0-1.6,dynamic,"3,2,6,1",Male,30,1/6/89,English,United States of America,C998204,,,null,6,30,
,2,html-button-response,35,292409,0.0-2.0-0.7,dynamic,"3,2,6,1",Male,30,1/6/89,English,United States of America,C998204,,,,,,
sound/6star.wav,,audio-keyboard-response,36,293912,0.0-2.0-1.7,dynamic,"3,2,6,1",Male,30,1/6/89,English,United States of America,C998204,,,null,6,36,
,2,html-button-response,37,294450,0.0-2.0-0.8,dynamic,"3,2,6,1",Male,30,1/6/89,English,United States of America,C998204,,,,,,
sound/6star.wav,,audio-keyboard-response,38,295952,0.0-2.0-1.8,dynamic,"3,2,6,1",Male,30,1/6/89,English,United States of America,C998204,,,null,6,42,
,2,html-button-response,39,300311,0.0-2.0-0.9,dynamic,"3,2,6,1",Male,30,1/6/89,English,United States of America,C998204,,,,,,
sound/6star.wav,,audio-keyboard-response,40,301815,0.0-2.0-1.9,dynamic,"3,2,6,1",Male,30,1/6/89,English,United States of America,C998204,,,null,6,48,
,2,html-button-response,41,302219,0.0-2.0-0.10,dynamic,"3,2,6,1",Male,30,1/6/89,English,United States of America,C998204,,,,,,
sound/6star.wav,,audio-keyboard-response,42,303721,0.0-2.0-1.10,dynamic,"3,2,6,1",Male,30,1/6/89,English,United States of America,C998204,,,null,6,54,
,2,html-button-response,43,304124,0.0-2.0-0.11,dynamic,"3,2,6,1",Male,30,1/6/89,English,United States of America,C998204,,,,,,
sound/6star.wav,,audio-keyboard-response,44,305627,0.0-2.0-1.11,dynamic,"3,2,6,1",Male,30,1/6/89,English,United States of America,C998204,,,null,6,60,
,2,html-button-response,45,306149,0.0-2.0-0.12,dynamic,"3,2,6,1",Male,30,1/6/89,English,United States of America,C998204,,,,,,
sound/6star.wav,,audio-keyboard-response,46,307652,0.0-2.0-1.12,dynamic,"3,2,6,1",Male,30,1/6/89,English,United States of America,C998204,,,null,6,66,
,2,html-button-response,47,308031,0.0-2.0-0.13,dynamic,"3,2,6,1",Male,30,1/6/89,English,United States of America,C998204,,,,,,
sound/6star.wav,,audio-keyboard-response,48,309535,0.0-2.0-1.13,dynamic,"3,2,6,1",Male,30,1/6/89,English,United States of America,C998204,,,null,6,72,
,2,html-button-response,49,309906,0.0-2.0-0.14,dynamic,"3,2,6,1",Male,30,1/6/89,English,United States of America,C998204,,,,,,
sound/6star.wav,,audio-keyboard-response,50,311409,0.0-2.0-1.14,dynamic,"3,2,6,1",Male,30,1/6/89,English,United States of America,C998204,,,null,6,78,
,2,html-button-response,51,311922,0.0-2.0-0.15,dynamic,"3,2,6,1",Male,30,1/6/89,English,United States of America,C998204,,,,,,
sound/6star.wav,,audio-keyboard-response,52,313425,0.0-2.0-1.15,dynamic,"3,2,6,1",Male,30,1/6/89,English,United States of America,C998204,,,null,6,84,
,2,html-button-response,53,313838,0.0-2.0-0.16,dynamic,"3,2,6,1",Male,30,1/6/89,English,United States of America,C998204,,,,,,
sound/6star.wav,,audio-keyboard-response,54,315340,0.0-2.0-1.16,dynamic,"3,2,6,1",Male,30,1/6/89,English,United States of America,C998204,,,null,6,90,
,2,html-button-response,55,315700,0.0-2.0-0.17,dynamic,"3,2,6,1",Male,30,1/6/89,English,United States of America,C998204,,,,,,
sound/6star.wav,,audio-keyboard-response,56,317203,0.0-2.0-1.17,dynamic,"3,2,6,1",Male,30,1/6/89,English,United States of America,C998204,,,null,6,96,
,2,html-button-response,57,317475,0.0-2.0-0.18,dynamic,"3,2,6,1",Male,30,1/6/89,English,United States of America,C998204,,,,,,
sound/6star.wav,,audio-keyboard-response,58,318980,0.0-2.0-1.18,dynamic,"3,2,6,1",Male,30,1/6/89,English,United States of America,C998204,,,null,6,102,
,2,html-button-response,59,319320,0.0-2.0-0.19,dynamic,"3,2,6,1",Male,30,1/6/89,English,United States of America,C998204,,,,,,
sound/6star.wav,,audio-keyboard-response,60,320824,0.0-2.0-1.19,dynamic,"3,2,6,1",Male,30,1/6/89,English,United States of America,C998204,,,null,6,108,
,2,html-button-response,61,321126,0.0-2.0-0.20,dynamic,"3,2,6,1",Male,30,1/6/89,English,United States of America,C998204,,,,,,
sound/6star.wav,,audio-keyboard-response,62,322628,0.0-2.0-1.20,dynamic,"3,2,6,1",Male,30,1/6/89,English,United States of America,C998204,,,null,6,114,
,2,html-button-response,63,322971,0.0-2.0-0.21,dynamic,"3,2,6,1",Male,30,1/6/89,English,United States of America,C998204,,,,,,
sound/6star.wav,,audio-keyboard-response,64,324473,0.0-2.0-1.21,dynamic,"3,2,6,1",Male,30,1/6/89,English,United States of America,C998204,,,null,6,120,
,2,html-button-response,65,324728,0.0-2.0-0.22,dynamic,"3,2,6,1",Male,30,1/6/89,English,United States of America,C998204,,,,,,
sound/6star.wav,,audio-keyboard-response,66,326232,0.0-2.0-1.22,dynamic,"3,2,6,1",Male,30,1/6/89,English,United States of America,C998204,,,null,6,126,
,2,html-button-response,67,326523,0.0-2.0-0.23,dynamic,"3,2,6,1",Male,30,1/6/89,English,United States of America,C998204,,,,,,
sound/6star.wav,,audio-keyboard-response,68,328026,0.0-2.0-1.23,dynamic,"3,2,6,1",Male,30,1/6/89,English,United States of America,C998204,,,null,6,132,
,2,html-button-response,69,328360,0.0-2.0-0.24,dynamic,"3,2,6,1",Male,30,1/6/89,English,United States of America,C998204,,,,,,
sound/6star.wav,,audio-keyboard-response,70,329863,0.0-2.0-1.24,dynamic,"3,2,6,1",Male,30,1/6/89,English,United States of America,C998204,,,null,6,138,
,2,html-button-response,71,330138,0.0-2.0-0.25,dynamic,"3,2,6,1",Male,30,1/6/89,English,United States of America,C998204,,,,,,
sound/6star.wav,,audio-keyboard-response,72,331641,0.0-2.0-1.25,dynamic,"3,2,6,1",Male,30,1/6/89,English,United States of America,C998204,,,null,6,144,
,2,html-button-response,73,331962,0.0-2.0-0.26,dynamic,"3,2,6,1",Male,30,1/6/89,English,United States of America,C998204,,,,,,
sound/6star.wav,,audio-keyboard-response,74,333465,0.0-2.0-1.26,dynamic,"3,2,6,1",Male,30,1/6/89,English,United States of America,C998204,,,null,6,150,
,2,html-button-response,75,333737,0.0-2.0-0.27,dynamic,"3,2,6,1",Male,30,1/6/89,English,United States of America,C998204,,,,,,
sound/6star.wav,,audio-keyboard-response,76,335240,0.0-2.0-1.27,dynamic,"3,2,6,1",Male,30,1/6/89,English,United States of America,C998204,,,null,6,156,
,2,html-button-response,77,335515,0.0-2.0-0.28,dynamic,"3,2,6,1",Male,30,1/6/89,English,United States of America,C998204,,,,,,
sound/6star.wav,,audio-keyboard-response,78,337017,0.0-2.0-1.28,dynamic,"3,2,6,1",Male,30,1/6/89,English,United States of America,C998204,,,null,6,162,
,2,html-button-response,79,337167,0.0-2.0-0.29,dynamic,"3,2,6,1",Male,30,1/6/89,English,United States of America,C998204,,,,,,
sound/6star.wav,,audio-keyboard-response,80,338670,0.0-2.0-1.29,dynamic,"3,2,6,1",Male,30,1/6/89,English,United States of America,C998204,,,null,6,168,
,2,html-button-response,81,338790,0.0-2.0-0.30,dynamic,"3,2,6,1",Male,30,1/6/89,English,United States of America,C998204,,,,,,
sound/6star.wav,,audio-keyboard-response,82,340292,0.0-2.0-1.30,dynamic,"3,2,6,1",Male,30,1/6/89,English,United States of America,C998204,,,null,6,174,
,2,html-button-response,83,340479,0.0-2.0-0.31,dynamic,"3,2,6,1",Male,30,1/6/89,English,United States of America,C998204,,,,,,
sound/6star.wav,,audio-keyboard-response,84,341982,0.0-2.0-1.31,dynamic,"3,2,6,1",Male,30,1/6/89,English,United States of America,C998204,,,null,6,180,
,2,html-button-response,85,342213,0.0-2.0-0.32,dynamic,"3,2,6,1",Male,30,1/6/89,English,United States of America,C998204,,,,,,
sound/6star.wav,,audio-keyboard-response,86,343717,0.0-2.0-1.32,dynamic,"3,2,6,1",Male,30,1/6/89,English,United States of America,C998204,,,null,6,186,
,2,html-button-response,87,343997,0.0-2.0-0.33,dynamic,"3,2,6,1",Male,30,1/6/89,English,United States of America,C998204,,,,,,
sound/6star.wav,,audio-keyboard-response,88,345500,0.0-2.0-1.33,dynamic,"3,2,6,1",Male,30,1/6/89,English,United States of America,C998204,,,null,6,192,
,2,html-button-response,89,345652,0.0-2.0-0.34,dynamic,"3,2,6,1",Male,30,1/6/89,English,United States of America,C998204,,,,,,
sound/6star.wav,,audio-keyboard-response,90,347155,0.0-2.0-1.34,dynamic,"3,2,6,1",Male,30,1/6/89,English,United States of America,C998204,,,null,6,198,
,2,html-button-response,91,347325,0.0-2.0-0.35,dynamic,"3,2,6,1",Male,30,1/6/89,English,United States of America,C998204,,,,,,
sound/6star.wav,,audio-keyboard-response,92,348827,0.0-2.0-1.35,dynamic,"3,2,6,1",Male,30,1/6/89,English,United States of America,C998204,,,null,6,204,
,2,html-button-response,93,349331,0.0-2.0-0.36,dynamic,"3,2,6,1",Male,30,1/6/89,English,United States of America,C998204,,,,,,
sound/6star.wav,,audio-keyboard-response,94,350834,0.0-2.0-1.36,dynamic,"3,2,6,1",Male,30,1/6/89,English,United States of America,C998204,,,null,6,210,
,2,html-button-response,95,351021,0.0-2.0-0.37,dynamic,"3,2,6,1",Male,30,1/6/89,English,United States of America,C998204,,,,,,
sound/6star.wav,,audio-keyboard-response,96,352524,0.0-2.0-1.37,dynamic,"3,2,6,1",Male,30,1/6/89,English,United States of America,C998204,,,null,6,216,
,2,html-button-response,97,352654,0.0-2.0-0.38,dynamic,"3,2,6,1",Male,30,1/6/89,English,United States of America,C998204,,,,,,
sound/6star.wav,,audio-keyboard-response,98,354157,0.0-2.0-1.38,dynamic,"3,2,6,1",Male,30,1/6/89,English,United States of America,C998204,,,null,6,222,
,2,html-button-response,99,354396,0.0-2.0-0.39,dynamic,"3,2,6,1",Male,30,1/6/89,English,United States of America,C998204,,,,,,
sound/6star.wav,,audio-keyboard-response,100,355898,0.0-2.0-1.39,dynamic,"3,2,6,1",Male,30,1/6/89,English,United States of America,C998204,,,null,6,228,
,2,html-button-response,101,356054,0.0-3.0-0.0,dynamic,"3,2,6,1",Male,30,1/6/89,English,United States of America,C998204,,,,,,
sound/6star.wav,,audio-keyboard-response,102,357558,0.0-3.0-1.0,dynamic,"3,2,6,1",Male,30,1/6/89,English,United States of America,C998204,,,null,6,234,
,2,html-button-response,103,357802,0.0-3.0-0.1,dynamic,"3,2,6,1",Male,30,1/6/89,English,United States of America,C998204,,,,,,
sound/6star.wav,,audio-keyboard-response,104,359306,0.0-3.0-1.1,dynamic,"3,2,6,1",Male,30,1/6/89,English,United States of America,C998204,,,null,6,240,
,2,html-button-response,105,359490,0.0-3.0-0.2,dynamic,"3,2,6,1",Male,30,1/6/89,English,United States of America,C998204,,,,,,
sound/6star.wav,,audio-keyboard-response,106,360992,0.0-3.0-1.2,dynamic,"3,2,6,1",Male,30,1/6/89,English,United States of America,C998204,,,null,6,246,
,2,html-button-response,107,361107,0.0-3.0-0.3,dynamic,"3,2,6,1",Male,30,1/6/89,English,United States of America,C998204,,,,,,
sound/6star.wav,,audio-keyboard-response,108,362611,0.0-3.0-1.3,dynamic,"3,2,6,1",Male,30,1/6/89,English,United States of America,C998204,,,null,6,252,
,2,html-button-response,109,362771,0.0-3.0-0.4,dynamic,"3,2,6,1",Male,30,1/6/89,English,United States of America,C998204,,,,,,
sound/6star.wav,,audio-keyboard-response,110,364273,0.0-3.0-1.4,dynamic,"3,2,6,1",Male,30,1/6/89,English,United States of America,C998204,,,null,6,258,
,2,html-button-response,111,364669,0.0-3.0-0.5,dynamic,"3,2,6,1",Male,30,1/6/89,English,United States of America,C998204,,,,,,
sound/6star.wav,,audio-keyboard-response,112,366173,0.0-3.0-1.5,dynamic,"3,2,6,1",Male,30,1/6/89,English,United States of America,C998204,,,null,6,264,
,2,html-button-response,113,366292,0.0-3.0-0.6,dynamic,"3,2,6,1",Male,30,1/6/89,English,United States of America,C998204,,,,,,
sound/6star.wav,,audio-keyboard-response,114,367795,0.0-3.0-1.6,dynamic,"3,2,6,1",Male,30,1/6/89,English,United States of America,C998204,,,null,6,270,
,2,html-button-response,115,367952,0.0-3.0-0.7,dynamic,"3,2,6,1",Male,30,1/6/89,English,United States of America,C998204,,,,,,
sound/6star.wav,,audio-keyboard-response,116,369456,0.0-3.0-1.7,dynamic,"3,2,6,1",Male,30,1/6/89,English,United States of America,C998204,,,null,6,276,
,2,html-button-response,117,369677,0.0-3.0-0.8,dynamic,"3,2,6,1",Male,30,1/6/89,English,United States of America,C998204,,,,,,
sound/6star.wav,,audio-keyboard-response,118,371179,0.0-3.0-1.8,dynamic,"3,2,6,1",Male,30,1/6/89,English,United States of America,C998204,,,null,6,282,
,2,html-button-response,119,371403,0.0-3.0-0.9,dynamic,"3,2,6,1",Male,30,1/6/89,English,United States of America,C998204,,,,,,
sound/6star.wav,,audio-keyboard-response,120,372906,0.0-3.0-1.9,dynamic,"3,2,6,1",Male,30,1/6/89,English,United States of America,C998204,,,null,6,288,
,2,html-button-response,121,372997,0.0-3.0-0.10,dynamic,"3,2,6,1",Male,30,1/6/89,English,United States of America,C998204,,,,,,
sound/6star.wav,,audio-keyboard-response,122,374499,0.0-3.0-1.10,dynamic,"3,2,6,1",Male,30,1/6/89,English,United States of America,C998204,,,null,6,294,
,2,html-button-response,123,375078,0.0-3.0-0.11,dynamic,"3,2,6,1",Male,30,1/6/89,English,United States of America,C998204,,,,,,
sound/6star.wav,,audio-keyboard-response,124,376579,0.0-3.0-1.11,dynamic,"3,2,6,1",Male,30,1/6/89,English,United States of America,C998204,,,null,6,300,
,2,html-button-response,125,376810,0.0-3.0-0.12,dynamic,"3,2,6,1",Male,30,1/6/89,English,United States of America,C998204,,,,,,
sound/6star.wav,,audio-keyboard-response,126,378312,0.0-3.0-1.12,dynamic,"3,2,6,1",Male,30,1/6/89,English,United States of America,C998204,,,null,6,306,
,2,html-button-response,127,378449,0.0-3.0-0.13,dynamic,"3,2,6,1",Male,30,1/6/89,English,United States of America,C998204,,,,,,
sound/6star.wav,,audio-keyboard-response,128,379952,0.0-3.0-1.13,dynamic,"3,2,6,1",Male,30,1/6/89,English,United States of America,C998204,,,null,6,312,
,2,html-button-response,129,379985,0.0-3.0-0.14,dynamic,"3,2,6,1",Male,30,1/6/89,English,United States of America,C998204,,,,,,
sound/6star.wav,,audio-keyboard-response,130,381488,0.0-3.0-1.14,dynamic,"3,2,6,1",Male,30,1/6/89,English,United States of America,C998204,,,null,6,318,
,2,html-button-response,131,382057,0.0-3.0-0.15,dynamic,"3,2,6,1",Male,30,1/6/89,English,United States of America,C998204,,,,,,
sound/6star.wav,,audio-keyboard-response,132,383559,0.0-3.0-1.15,dynamic,"3,2,6,1",Male,30,1/6/89,English,United States of America,C998204,,,null,6,324,
,2,html-button-response,133,384058,0.0-3.0-0.16,dynamic,"3,2,6,1",Male,30,1/6/89,English,United States of America,C998204,,,,,,
sound/6star.wav,,audio-keyboard-response,134,385561,0.0-3.0-1.16,dynamic,"3,2,6,1",Male,30,1/6/89,English,United States of America,C998204,,,null,6,330,
,2,html-button-response,135,385862,0.0-3.0-0.17,dynamic,"3,2,6,1",Male,30,1/6/89,English,United States of America,C998204,,,,,,
sound/6star.wav,,audio-keyboard-response,136,387367,0.0-3.0-1.17,dynamic,"3,2,6,1",Male,30,1/6/89,English,United States of America,C998204,,,null,6,336,
,2,html-button-response,137,387664,0.0-3.0-0.18,dynamic,"3,2,6,1",Male,30,1/6/89,English,United States of America,C998204,,,,,,
sound/6star.wav,,audio-keyboard-response,138,389167,0.0-3.0-1.18,dynamic,"3,2,6,1",Male,30,1/6/89,English,United States of America,C998204,,,null,6,342,
,2,html-button-response,139,389447,0.0-3.0-0.19,dynamic,"3,2,6,1",Male,30,1/6/89,English,United States of America,C998204,,,,,,
sound/6star.wav,,audio-keyboard-response,140,390949,0.0-3.0-1.19,dynamic,"3,2,6,1",Male,30,1/6/89,English,United States of America,C998204,,,null,6,348,
,2,html-button-response,141,391196,0.0-3.0-0.20,dynamic,"3,2,6,1",Male,30,1/6/89,English,United States of America,C998204,,,,,,
sound/6star.wav,,audio-keyboard-response,142,392699,0.0-3.0-1.20,dynamic,"3,2,6,1",Male,30,1/6/89,English,United States of America,C998204,,,null,6,354,
,2,html-button-response,143,392928,0.0-3.0-0.21,dynamic,"3,2,6,1",Male,30,1/6/89,English,United States of America,C998204,,,,,,
sound/6star.wav,,audio-keyboard-response,144,394432,0.0-3.0-1.21,dynamic,"3,2,6,1",Male,30,1/6/89,English,United States of America,C998204,,,null,6,360,
,2,html-button-response,145,394612,0.0-3.0-0.22,dynamic,"3,2,6,1",Male,30,1/6/89,English,United States of America,C998204,,,,,,
sound/6star.wav,,audio-keyboard-response,146,396115,0.0-3.0-1.22,dynamic,"3,2,6,1",Male,30,1/6/89,English,United States of America,C998204,,,null,6,366,
,2,html-button-response,147,396343,0.0-3.0-0.23,dynamic,"3,2,6,1",Male,30,1/6/89,English,United States of America,C998204,,,,,,
sound/6star.wav,,audio-keyboard-response,148,397847,0.0-3.0-1.23,dynamic,"3,2,6,1",Male,30,1/6/89,English,United States of America,C998204,,,null,6,372,
,2,html-button-response,149,398017,0.0-3.0-0.24,dynamic,"3,2,6,1",Male,30,1/6/89,English,United States of America,C998204,,,,,,
sound/6star.wav,,audio-keyboard-response,150,399520,0.0-3.0-1.24,dynamic,"3,2,6,1",Male,30,1/6/89,English,United States of America,C998204,,,null,6,378,
,2,html-button-response,151,399787,0.0-3.0-0.25,dynamic,"3,2,6,1",Male,30,1/6/89,English,United States of America,C998204,,,,,,
sound/6star.wav,,audio-keyboard-response,152,401290,0.0-3.0-1.25,dynamic,"3,2,6,1",Male,30,1/6/89,English,United States of America,C998204,,,null,6,384,
,2,html-button-response,153,401424,0.0-3.0-0.26,dynamic,"3,2,6,1",Male,30,1/6/89,English,United States of America,C998204,,,,,,
sound/6star.wav,,audio-keyboard-response,154,402926,0.0-3.0-1.26,dynamic,"3,2,6,1",Male,30,1/6/89,English,United States of America,C998204,,,null,6,390,
,2,html-button-response,155,403067,0.0-3.0-0.27,dynamic,"3,2,6,1",Male,30,1/6/89,English,United States of America,C998204,,,,,,
sound/6star.wav,,audio-keyboard-response,156,404570,0.0-3.0-1.27,dynamic,"3,2,6,1",Male,30,1/6/89,English,United States of America,C998204,,,null,6,396,
,2,html-button-response,157,404728,0.0-3.0-0.28,dynamic,"3,2,6,1",Male,30,1/6/89,English,United States of America,C998204,,,,,,
sound/6star.wav,,audio-keyboard-response,158,406232,0.0-3.0-1.28,dynamic,"3,2,6,1",Male,30,1/6/89,English,United States of America,C998204,,,null,6,402,
,2,html-button-response,159,406405,0.0-3.0-0.29,dynamic,"3,2,6,1",Male,30,1/6/89,English,United States of America,C998204,,,,,,
sound/6star.wav,,audio-keyboard-response,160,407909,0.0-3.0-1.29,dynamic,"3,2,6,1",Male,30,1/6/89,English,United States of America,C998204,,,null,6,408,
,2,html-button-response,161,408530,0.0-3.0-0.30,dynamic,"3,2,6,1",Male,30,1/6/89,English,United States of America,C998204,,,,,,
sound/6star.wav,,audio-keyboard-response,162,410034,0.0-3.0-1.30,dynamic,"3,2,6,1",Male,30,1/6/89,English,United States of America,C998204,,,null,6,414,
,2,html-button-response,163,410575,0.0-3.0-0.31,dynamic,"3,2,6,1",Male,30,1/6/89,English,United States of America,C998204,,,,,,
sound/6star.wav,,audio-keyboard-response,164,412078,0.0-3.0-1.31,dynamic,"3,2,6,1",Male,30,1/6/89,English,United States of America,C998204,,,null,6,420,
,2,html-button-response,165,412263,0.0-3.0-0.32,dynamic,"3,2,6,1",Male,30,1/6/89,English,United States of America,C998204,,,,,,
sound/6star.wav,,audio-keyboard-response,166,413766,0.0-3.0-1.32,dynamic,"3,2,6,1",Male,30,1/6/89,English,United States of America,C998204,,,null,6,426,
,2,html-button-response,167,413933,0.0-3.0-0.33,dynamic,"3,2,6,1",Male,30,1/6/89,English,United States of America,C998204,,,,,,
sound/6star.wav,,audio-keyboard-response,168,415435,0.0-3.0-1.33,dynamic,"3,2,6,1",Male,30,1/6/89,English,United States of America,C998204,,,null,6,432,
,2,html-button-response,169,415581,0.0-3.0-0.34,dynamic,"3,2,6,1",Male,30,1/6/89,English,United States of America,C998204,,,,,,
sound/6star.wav,,audio-keyboard-response,170,417084,0.0-3.0-1.34,dynamic,"3,2,6,1",Male,30,1/6/89,English,United States of America,C998204,,,null,6,438,
,2,html-button-response,171,417537,0.0-3.0-0.35,dynamic,"3,2,6,1",Male,30,1/6/89,English,United States of America,C998204,,,,,,
sound/6star.wav,,audio-keyboard-response,172,419039,0.0-3.0-1.35,dynamic,"3,2,6,1",Male,30,1/6/89,English,United States of America,C998204,,,null,6,444,
,2,html-button-response,173,419639,0.0-3.0-0.36,dynamic,"3,2,6,1",Male,30,1/6/89,English,United States of America,C998204,,,,,,
sound/6star.wav,,audio-keyboard-response,174,421143,0.0-3.0-1.36,dynamic,"3,2,6,1",Male,30,1/6/89,English,United States of America,C998204,,,null,6,450,
,2,html-button-response,175,421305,0.0-3.0-0.37,dynamic,"3,2,6,1",Male,30,1/6/89,English,United States of America,C998204,,,,,,
sound/6star.wav,,audio-keyboard-response,176,422807,0.0-3.0-1.37,dynamic,"3,2,6,1",Male,30,1/6/89,English,United States of America,C998204,,,null,6,456,
,2,html-button-response,177,422974,0.0-3.0-0.38,dynamic,"3,2,6,1",Male,30,1/6/89,English,United States of America,C998204,,,,,,
sound/6star.wav,,audio-keyboard-response,178,424476,0.0-3.0-1.38,dynamic,"3,2,6,1",Male,30,1/6/89,English,United States of America,C998204,,,null,6,462,
,2,html-button-response,179,424617,0.0-3.0-0.39,dynamic,"3,2,6,1",Male,30,1/6/89,English,United States of America,C998204,,,,,,
sound/6star.wav,,audio-keyboard-response,180,426120,0.0-3.0-1.39,dynamic,"3,2,6,1",Male,30,1/6/89,English,United States of America,C998204,,,null,6,468,
sound/celebration.wav,0,audio-button-response,181,428917,0.0-4.0,dynamic,"3,2,6,1",Male,30,1/6/89,English,United States of America,C998204,,,,,,
"Which, if any, of these monsters ever gave you <b>1 star</b>?</p>",3,html-button-response,182,433162,0.0-5.0-0.0,dynamic,"3,2,6,1",Male,30,1/6/89,English,United States of America,C998204,,,,,,correct
"Which, if any, of these monsters ever gave you <b>2 stars</b>?</p>",1,html-button-response,183,436191,0.0-6.0-0.0,dynamic,"3,2,6,1",Male,30,1/6/89,English,United States of America,C998204,,,,,,correct
"Which, if any, of these monsters ever gave you <b>3 stars</b>?</p>",0,html-button-response,184,437731,0.0-7.0-0.0,dynamic,"3,2,6,1",Male,30,1/6/89,English,United States of America,C998204,,,,,,correct
"Which, if any, of these monsters ever gave you <b>6 stars</b>?</p>",2,html-button-response,185,440136,0.0-8.0-0.0,dynamic,"3,2,6,1",Male,30,1/6/89,English,United States of America,C998204,,,,,,correct
"Which, if any, of these monsters ever gave you <b>8 stars</b>?</p>",4,html-button-response,186,443729,0.0-9.0-0.0,dynamic,"3,2,6,1",Male,30,1/6/89,English,United States of America,C998204,,,,,,incorrect
Which monster did you like the most?</p>,2,html-button-response,187,445708,0.0-10.0-0.0,dynamic,"3,2,6,1",Male,30,1/6/89,English,United States of America,C998204,,,,,,
,,survey-text,188,460069,0.0-11.0,dynamic,"3,2,6,1",Male,30,1/6/89,English,United States of America,C998204,,"{""Q0"":""It gave the most stars.""}",,,,
stimulus,button_pressed,trial_type,trial_index,time_elapsed,internal_node_id,condition,pointvals_firsthalf,gender,age,dob,language,country,turkcode,animation_sequence,responses,key_press,earnedThis,earnedCumulative,posttest
"<p>Hi! Welcome to the experiment. This study takes the form of a simple decision making task.<br> It is designed to help us learn how children make decisions, so it will look like a kid's game.<br> However, in order to understand how kids make choices, we need to compare what they do to adults<br> doing the same task. That's you! Because of this, we ask you to take the task seriously and do your<br>best, even if the task seems like a strange thing for an adult to do.</p>",0,html-button-response,0,349297,0.0-0.0-0.0-0.0,dynamic,"2,3,6,1",female,29,8/13/89,English,United States of America,C546829,,,,,,
,,animation,1,361362,0.0-0.0-1.0,dynamic,"2,3,6,1",female,29,8/13/89,English,United States of America,C546829,"[{""stimulus"":""img/screen1a.png"",""time"":3002},{""stimulus"":""img/screen1b.png"",""time"":6002},{""stimulus"":""img/screen1c.png"",""time"":9238}]",[],,,,
<img src='img/screen1d.png'></img>,0,html-button-response,2,491968,0.0-0.0-2.0,dynamic,"2,3,6,1",female,29,8/13/89,English,United States of America,C546829,,,,,,
,,animation,3,517646,0.0-0.0-3.0,dynamic,"2,3,6,1",female,29,8/13/89,English,United States of America,C546829,"[{""stimulus"":""img/screen2.jpg"",""time"":801},{""stimulus"":""img/screen2.jpg"",""time"":1606},{""stimulus"":""img/screen2.jpg"",""time"":2404},{""stimulus"":""img/screen2.jpg"",""time"":3202},{""stimulus"":""img/screen2.jpg"",""time"":4003},{""stimulus"":""img/screen3a.jpg"",""time"":5457},{""stimulus"":""img/screen3b.jpg"",""time"":6554},{""stimulus"":""img/screen3c.jpg"",""time"":7325},{""stimulus"":""img/screen3d.jpg"",""time"":8667},{""stimulus"":""img/screen4a.jpg"",""time"":9478},{""stimulus"":""img/screen4a.jpg"",""time"":10429},{""stimulus"":""img/screen4b.jpg"",""time"":11601},{""stimulus"":""img/screen4c.jpg"",""time"":12225},{""stimulus"":""img/screen4d.jpg"",""time"":13713},{""stimulus"":""img/screen4d.jpg"",""time"":14470},{""stimulus"":""img/screen5a.jpg"",""time"":15386},{""stimulus"":""img/screen5b1.jpg"",""time"":16635},{""stimulus"":""img/screen5b2.jpg"",""time"":17509},{""stimulus"":""img/screen5b3.jpg"",""time"":18436},{""stimulus"":""img/screen5b4.jpg"",""time"":19359},{""stimulus"":""img/screen5b5.jpg"",""time"":20332},{""stimulus"":""img/screen5b6.jpg"",""time"":21226},{""stimulus"":""img/screen5c.jpg"",""time"":22226},{""stimulus"":""img/screen5d.jpg"",""time"":23225},{""stimulus"":""img/screen5d.jpg"",""time"":24279}]",[],,,,
<img src='img/screen5e.jpg'></img>,0,html-button-response,4,606545,0.0-0.0-4.0,dynamic,"2,3,6,1",female,29,8/13/89,English,United States of America,C546829,,,,,,
,,survey-multi-choice,5,617200,0.0-0.0-5.0,dynamic,"2,3,6,1",female,29,8/13/89,English,United States of America,C546829,,"{""Q0"":"" You click on the monsters"",""Q1"":"" Because the main study will have children participating""}",,,,
Well done!,0,html-button-response,6,618396,0.0-1.0,dynamic,"2,3,6,1",female,29,8/13/89,English,United States of America,C546829,,,,,,
,2,html-button-response,7,620964,0.0-2.0-0.0,dynamic,"2,3,6,1",female,29,8/13/89,English,United States of America,C546829,,,,,,
sound/6star.wav,,audio-keyboard-response,8,622472,0.0-2.0-1.0,dynamic,"2,3,6,1",female,29,8/13/89,English,United States of America,C546829,,,null,6,6,
,1,html-button-response,9,623404,0.0-2.0-0.1,dynamic,"2,3,6,1",female,29,8/13/89,English,United States of America,C546829,,,,,,
sound/3star.wav,,audio-keyboard-response,10,624907,0.0-2.0-1.1,dynamic,"2,3,6,1",female,29,8/13/89,English,United States of America,C546829,,,null,3,9,
,0,html-button-response,11,625494,0.0-2.0-0.2,dynamic,"2,3,6,1",female,29,8/13/89,English,United States of America,C546829,,,,,,
sound/2star.wav,,audio-keyboard-response,12,626996,0.0-2.0-1.2,dynamic,"2,3,6,1",female,29,8/13/89,English,United States of America,C546829,,,null,2,11,
,2,html-button-response,13,627672,0.0-2.0-0.3,dynamic,"2,3,6,1",female,29,8/13/89,English,United States of America,C546829,,,,,,
sound/6star.wav,,audio-keyboard-response,14,629176,0.0-2.0-1.3,dynamic,"2,3,6,1",female,29,8/13/89,English,United States of America,C546829,,,null,6,17,
,3,html-button-response,15,629857,0.0-2.0-0.4,dynamic,"2,3,6,1",female,29,8/13/89,English,United States of America,C546829,,,,,,
sound/1star.wav,,audio-keyboard-response,16,631365,0.0-2.0-1.4,dynamic,"2,3,6,1",female,29,8/13/89,English,United States of America,C546829,,,null,1,18,
,2,html-button-response,17,631773,0.0-2.0-0.5,dynamic,"2,3,6,1",female,29,8/13/89,English,United States of America,C546829,,,,,,
sound/6star.wav,,audio-keyboard-response,18,633275,0.0-2.0-1.5,dynamic,"2,3,6,1",female,29,8/13/89,English,United States of America,C546829,,,null,6,24,
,2,html-button-response,19,633972,0.0-2.0-0.6,dynamic,"2,3,6,1",female,29,8/13/89,English,United States of America,C546829,,,,,,
sound/6star.wav,,audio-keyboard-response,20,635475,0.0-2.0-1.6,dynamic,"2,3,6,1",female,29,8/13/89,English,United States of America,C546829,,,null,6,30,
,2,html-button-response,21,636040,0.0-2.0-0.7,dynamic,"2,3,6,1",female,29,8/13/89,English,United States of America,C546829,,,,,,
sound/6star.wav,,audio-keyboard-response,22,637547,0.0-2.0-1.7,dynamic,"2,3,6,1",female,29,8/13/89,English,United States of America,C546829,,,null,6,36,
,2,html-button-response,23,638111,0.0-2.0-0.8,dynamic,"2,3,6,1",female,29,8/13/89,English,United States of America,C546829,,,,,,
sound/6star.wav,,audio-keyboard-response,24,639614,0.0-2.0-1.8,dynamic,"2,3,6,1",female,29,8/13/89,English,United States of America,C546829,,,null,6,42,
,2,html-button-response,25,640078,0.0-2.0-0.9,dynamic,"2,3,6,1",female,29,8/13/89,English,United States of America,C546829,,,,,,
sound/6star.wav,,audio-keyboard-response,26,641582,0.0-2.0-1.9,dynamic,"2,3,6,1",female,29,8/13/89,English,United States of America,C546829,,,null,6,48,
,2,html-button-response,27,642078,0.0-2.0-0.10,dynamic,"2,3,6,1",female,29,8/13/89,English,United States of America,C546829,,,,,,
sound/6star.wav,,audio-keyboard-response,28,643581,0.0-2.0-1.10,dynamic,"2,3,6,1",female,29,8/13/89,English,United States of America,C546829,,,null,6,54,
,2,html-button-response,29,643979,0.0-2.0-0.11,dynamic,"2,3,6,1",female,29,8/13/89,English,United States of America,C546829,,,,,,
sound/6star.wav,,audio-keyboard-response,30,645484,0.0-2.0-1.11,dynamic,"2,3,6,1",female,29,8/13/89,English,United States of America,C546829,,,null,6,60,
,1,html-button-response,31,645821,0.0-2.0-0.12,dynamic,"2,3,6,1",female,29,8/13/89,English,United States of America,C546829,,,,,,
sound/3star.wav,,audio-keyboard-response,32,647324,0.0-2.0-1.12,dynamic,"2,3,6,1",female,29,8/13/89,English,United States of America,C546829,,,null,3,63,
,2,html-button-response,33,647704,0.0-2.0-0.13,dynamic,"2,3,6,1",female,29,8/13/89,English,United States of America,C546829,,,,,,
sound/6star.wav,,audio-keyboard-response,34,649208,0.0-2.0-1.13,dynamic,"2,3,6,1",female,29,8/13/89,English,United States of America,C546829,,,null,6,69,
,2,html-button-response,35,649665,0.0-2.0-0.14,dynamic,"2,3,6,1",female,29,8/13/89,English,United States of America,C546829,,,,,,
sound/6star.wav,,audio-keyboard-response,36,651171,0.0-2.0-1.14,dynamic,"2,3,6,1",female,29,8/13/89,English,United States of America,C546829,,,null,6,75,
,2,html-button-response,37,651613,0.0-2.0-0.15,dynamic,"2,3,6,1",female,29,8/13/89,English,United States of America,C546829,,,,,,
sound/6star.wav,,audio-keyboard-response,38,653117,0.0-2.0-1.15,dynamic,"2,3,6,1",female,29,8/13/89,English,United States of America,C546829,,,null,6,81,
,2,html-button-response,39,653813,0.0-2.0-0.16,dynamic,"2,3,6,1",female,29,8/13/89,English,United States of America,C546829,,,,,,
sound/6star.wav,,audio-keyboard-response,40,655317,0.0-2.0-1.16,dynamic,"2,3,6,1",female,29,8/13/89,English,United States of America,C546829,,,null,6,87,
,2,html-button-response,41,655814,0.0-2.0-0.17,dynamic,"2,3,6,1",female,29,8/13/89,English,United States of America,C546829,,,,,,
sound/6star.wav,,audio-keyboard-response,42,657320,0.0-2.0-1.17,dynamic,"2,3,6,1",female,29,8/13/89,English,United States of America,C546829,,,null,6,93,
,2,html-button-response,43,657814,0.0-2.0-0.18,dynamic,"2,3,6,1",female,29,8/13/89,English,United States of America,C546829,,,,,,
sound/6star.wav,,audio-keyboard-response,44,659317,0.0-2.0-1.18,dynamic,"2,3,6,1",female,29,8/13/89,English,United States of America,C546829,,,null,6,99,
,2,html-button-response,45,660013,0.0-2.0-0.19,dynamic,"2,3,6,1",female,29,8/13/89,English,United States of America,C546829,,,,,,
sound/6star.wav,,audio-keyboard-response,46,661517,0.0-2.0-1.19,dynamic,"2,3,6,1",female,29,8/13/89,English,United States of America,C546829,,,null,6,105,
,2,html-button-response,47,661897,0.0-2.0-0.20,dynamic,"2,3,6,1",female,29,8/13/89,English,United States of America,C546829,,,,,,
sound/6star.wav,,audio-keyboard-response,48,663402,0.0-2.0-1.20,dynamic,"2,3,6,1",female,29,8/13/89,English,United States of America,C546829,,,null,6,111,
,2,html-button-response,49,663589,0.0-2.0-0.21,dynamic,"2,3,6,1",female,29,8/13/89,English,United States of America,C546829,,,,,,
sound/6star.wav,,audio-keyboard-response,50,665093,0.0-2.0-1.21,dynamic,"2,3,6,1",female,29,8/13/89,English,United States of America,C546829,,,null,6,117,
,2,html-button-response,51,665465,0.0-2.0-0.22,dynamic,"2,3,6,1",female,29,8/13/89,English,United States of America,C546829,,,,,,
sound/6star.wav,,audio-keyboard-response,52,666974,0.0-2.0-1.22,dynamic,"2,3,6,1",female,29,8/13/89,English,United States of America,C546829,,,null,6,123,
,2,html-button-response,53,667320,0.0-2.0-0.23,dynamic,"2,3,6,1",female,29,8/13/89,English,United States of America,C546829,,,,,,
sound/6star.wav,,audio-keyboard-response,54,668826,0.0-2.0-1.23,dynamic,"2,3,6,1",female,29,8/13/89,English,United States of America,C546829,,,null,6,129,
,2,html-button-response,55,668991,0.0-2.0-0.24,dynamic,"2,3,6,1",female,29,8/13/89,English,United States of America,C546829,,,,,,
sound/6star.wav,,audio-keyboard-response,56,670498,0.0-2.0-1.24,dynamic,"2,3,6,1",female,29,8/13/89,English,United States of America,C546829,,,null,6,135,
,2,html-button-response,57,670923,0.0-2.0-0.25,dynamic,"2,3,6,1",female,29,8/13/89,English,United States of America,C546829,,,,,,
sound/6star.wav,,audio-keyboard-response,58,672425,0.0-2.0-1.25,dynamic,"2,3,6,1",female,29,8/13/89,English,United States of America,C546829,,,null,6,141,
,2,html-button-response,59,672774,0.0-2.0-0.26,dynamic,"2,3,6,1",female,29,8/13/89,English,United States of America,C546829,,,,,,
sound/6star.wav,,audio-keyboard-response,60,674282,0.0-2.0-1.26,dynamic,"2,3,6,1",female,29,8/13/89,English,United States of America,C546829,,,null,6,147,
,2,html-button-response,61,674333,0.0-2.0-0.27,dynamic,"2,3,6,1",female,29,8/13/89,English,United States of America,C546829,,,,,,
sound/6star.wav,,audio-keyboard-response,62,675838,0.0-2.0-1.27,dynamic,"2,3,6,1",female,29,8/13/89,English,United States of America,C546829,,,null,6,153,
,2,html-button-response,63,675899,0.0-2.0-0.28,dynamic,"2,3,6,1",female,29,8/13/89,English,United States of America,C546829,,,,,,
sound/6star.wav,,audio-keyboard-response,64,677402,0.0-2.0-1.28,dynamic,"2,3,6,1",female,29,8/13/89,English,United States of America,C546829,,,null,6,159,
,2,html-button-response,65,677555,0.0-2.0-0.29,dynamic,"2,3,6,1",female,29,8/13/89,English,United States of America,C546829,,,,,,
sound/6star.wav,,audio-keyboard-response,66,679060,0.0-2.0-1.29,dynamic,"2,3,6,1",female,29,8/13/89,English,United States of America,C546829,,,null,6,165,
,2,html-button-response,67,679211,0.0-2.0-0.30,dynamic,"2,3,6,1",female,29,8/13/89,English,United States of America,C546829,,,,,,
sound/6star.wav,,audio-keyboard-response,68,680715,0.0-2.0-1.30,dynamic,"2,3,6,1",female,29,8/13/89,English,United States of America,C546829,,,null,6,171,
