rt,stimulus,button_pressed,trial_type,trial_index,time_elapsed,internal_node_id,condition,pointvals_firsthalf,gender,age,dob,language,country,turkcode,animation_sequence,responses,key_press,earnedThis,earnedCumulative,posttest
9769,"<p>Hi! Welcome to the experiment. This study takes the form of a simple decision making task.<br> It is designed to help us learn how children make decisions, so it will look like a kid's game.<br> However, in order to understand how kids make choices, we need to compare what they do to adults<br> doing the same task. That's you! Because of this, we ask you to take the task seriously and do your<br>best, even if the task seems like a strange thing for an adult to do.</p>",0,html-button-response,0,9771,0.0-0.0-0.0-0.0,dynamic,"3,2,6,1",male,31,10/2/87,English,United States of America,C559246,,,,,, 
,,,animation,1,21772,0.0-0.0-1.0,dynamic,"3,2,6,1",male,31,10/2/87,English,United States of America,C559246,"[\{""stimulus"":""img/screen1a.png"",""time"":3002\},\{""stimulus"":""img/screen1b.png"",""time"":6001\},\{""stimulus"":""img/screen1c.png"",""time"":9002\}]",[],,,, 
4117,<img src='img/screen1d.png'></img>,0,html-button-response,2,25890,0.0-0.0-2.0,dynamic,"3,2,6,1",male,31,10/2/87,English,United States of America,C559246,,,,,, 
,,,animation,3,46692,0.0-0.0-3.0,dynamic,"3,2,6,1",male,31,10/2/87,English,United States of America,C559246,"[\{""stimulus"":""img/screen2.jpg"",""time"":802\},\{""stimulus"":""img/screen2.jpg"",""time"":1601\},\{""stimulus"":""img/screen2.jpg"",""time"":2401\},\{""stimulus"":""img/screen2.jpg"",""time"":3201\},\{""stimulus"":""img/screen2.jpg"",""time"":4001\},\{""stimulus"":""img/screen3a.jpg"",""time"":4800\},\{""stimulus"":""img/screen3b.jpg"",""time"":5602\},\{""stimulus"":""img/screen3c.jpg"",""time"":6401\},\{""stimulus"":""img/screen3d.jpg"",""time"":7201\},\{""stimulus"":""img/screen4a.jpg"",""time"":8002\},\{""stimulus"":""img/screen4a.jpg"",""time"":8800\},\{""stimulus"":""img/screen4b.jpg"",""time"":9601\},\{""stimulus"":""img/screen4c.jpg"",""time"":10400\},\{""stimulus"":""img/screen4d.jpg"",""time"":11201\},\{""stimulus"":""img/screen4d.jpg"",""time"":12001\},\{""stimulus"":""img/screen5a.jpg"",""time"":12801\},\{""stimulus"":""img/screen5b1.jpg"",""time"":13601\},\{""stimulus"":""img/screen5b2.jpg"",""time"":14401\},\{""stimulus"":""img/screen5b3.jpg"",""time"":15202\},\{""stimulus"":""img/screen5b4.jpg"",""time"":16001\},\{""stimulus"":""img/screen5b5.jpg"",""time"":16802\},\{""stimulus"":""img/screen5b6.jpg"",""time"":17601\},\{""stimulus"":""img/screen5c.jpg"",""time"":18401\},\{""stimulus"":""img/screen5d.jpg"",""time"":19202\},\{""stimulus"":""img/screen5d.jpg"",""time"":20001\}]",[],,,, 
1901,<img src='img/screen5e.jpg'></img>,0,html-button-response,4,48594,0.0-0.0-4.0,dynamic,"3,2,6,1",male,31,10/2/87,English,United States of America,C559246,,,,,,
11494,,,survey-multi-choice,5,60090,0.0-0.0-5.0,dynamic,"3,2,6,1",male,31,10/2/87,English,United States of America,C559246,,"\{""Q0"":"" You click on the monsters"",""Q1"":"" Because the main study will have children participating""\}",,,,
1327,Well done!,0,html-button-response,6,61417,0.0-1.0,dynamic,"3,2,6,1",male,31,10/2/87,English,United States of America,C559246,,,,,,
1319,,0,html-button-response,7,62738,0.0-2.0-0.0,dynamic,"3,2,6,1",male,31,10/2/87,English,United States of America,C559246,,,,,,
null,sound/3star.wav,,audio-keyboard-response,8,64245,0.0-2.0-1.0,dynamic,"3,2,6,1",male,31,10/2/87,English,United States of America,C559246,,,null,3,3,
875,,1,html-button-response,9,65122,0.0-2.0-0.1,dynamic,"3,2,6,1",male,31,10/2/87,English,United States of America,C559246,,,,,,
null,sound/2star.wav,,audio-keyboard-response,10,66625,0.0-2.0-1.1,dynamic,"3,2,6,1",male,31,10/2/87,English,United States of America,C559246,,,null,2,5,
576,,3,html-button-response,11,67203,0.0-2.0-0.2,dynamic,"3,2,6,1",male,31,10/2/87,English,United States of America,C559246,,,,,,
null,sound/1star.wav,,audio-keyboard-response,12,68704,0.0-2.0-1.2,dynamic,"3,2,6,1",male,31,10/2/87,English,United States of America,C559246,,,null,1,6,
672,,2,html-button-response,13,69377,0.0-2.0-0.3,dynamic,"3,2,6,1",male,31,10/2/87,English,United States of America,C559246,,,,,,
null,sound/6star.wav,,audio-keyboard-response,14,70880,0.0-2.0-1.3,dynamic,"3,2,6,1",male,31,10/2/87,English,United States of America,C559246,,,null,6,12,
569,,2,html-button-response,15,71451,0.0-2.0-0.4,dynamic,"3,2,6,1",male,31,10/2/87,English,United States of America,C559246,,,,,,
null,sound/6star.wav,,audio-keyboard-response,16,72953,0.0-2.0-1.4,dynamic,"3,2,6,1",male,31,10/2/87,English,United States of America,C559246,,,null,6,18,
471,,2,html-button-response,17,73425,0.0-2.0-0.5,dynamic,"3,2,6,1",male,31,10/2/87,English,United States of America,C559246,,,,,,
null,sound/6star.wav,,audio-keyboard-response,18,74927,0.0-2.0-1.5,dynamic,"3,2,6,1",male,31,10/2/87,English,United States of America,C559246,,,null,6,24,
457,,2,html-button-response,19,75386,0.0-2.0-0.6,dynamic,"3,2,6,1",male,31,10/2/87,English,United States of America,C559246,,,,,,
null,sound/6star.wav,,audio-keyboard-response,20,76888,0.0-2.0-1.6,dynamic,"3,2,6,1",male,31,10/2/87,English,United States of America,C559246,,,null,6,30,
352,,2,html-button-response,21,77242,0.0-2.0-0.7,dynamic,"3,2,6,1",male,31,10/2/87,English,United States of America,C559246,,,,,,
null,sound/6star.wav,,audio-keyboard-response,22,78744,0.0-2.0-1.7,dynamic,"3,2,6,1",male,31,10/2/87,English,United States of America,C559246,,,null,6,36,
369,,2,html-button-response,23,79113,0.0-2.0-0.8,dynamic,"3,2,6,1",male,31,10/2/87,English,United States of America,C559246,,,,,,
null,sound/6star.wav,,audio-keyboard-response,24,80616,0.0-2.0-1.8,dynamic,"3,2,6,1",male,31,10/2/87,English,United States of America,C559246,,,null,6,42,
322,,2,html-button-response,25,80939,0.0-2.0-0.9,dynamic,"3,2,6,1",male,31,10/2/87,English,United States of America,C559246,,,,,,
null,sound/6star.wav,,audio-keyboard-response,26,82441,0.0-2.0-1.9,dynamic,"3,2,6,1",male,31,10/2/87,English,United States of America,C559246,,,null,6,48,
376,,2,html-button-response,27,82818,0.0-2.0-0.10,dynamic,"3,2,6,1",male,31,10/2/87,English,United States of America,C559246,,,,,,
null,sound/6star.wav,,audio-keyboard-response,28,84319,0.0-2.0-1.10,dynamic,"3,2,6,1",male,31,10/2/87,English,United States of America,C559246,,,null,6,54,
226,,2,html-button-response,29,84547,0.0-2.0-0.11,dynamic,"3,2,6,1",male,31,10/2/87,English,United States of America,C559246,,,,,,
null,sound/6star.wav,,audio-keyboard-response,30,86049,0.0-2.0-1.11,dynamic,"3,2,6,1",male,31,10/2/87,English,United States of America,C559246,,,null,6,60,
496,,2,html-button-response,31,86545,0.0-2.0-0.12,dynamic,"3,2,6,1",male,31,10/2/87,English,United States of America,C559246,,,,,,
null,sound/6star.wav,,audio-keyboard-response,32,88047,0.0-2.0-1.12,dynamic,"3,2,6,1",male,31,10/2/87,English,United States of America,C559246,,,null,6,66,
305,,2,html-button-response,33,88353,0.0-2.0-0.13,dynamic,"3,2,6,1",male,31,10/2/87,English,United States of America,C559246,,,,,,
null,sound/6star.wav,,audio-keyboard-response,34,89856,0.0-2.0-1.13,dynamic,"3,2,6,1",male,31,10/2/87,English,United States of America,C559246,,,null,6,72,
352,,2,html-button-response,35,90210,0.0-2.0-0.14,dynamic,"3,2,6,1",male,31,10/2/87,English,United States of America,C559246,,,,,,
null,sound/6star.wav,,audio-keyboard-response,36,91712,0.0-2.0-1.14,dynamic,"3,2,6,1",male,31,10/2/87,English,United States of America,C559246,,,null,6,78,
305,,2,html-button-response,37,92018,0.0-2.0-0.15,dynamic,"3,2,6,1",male,31,10/2/87,English,United States of America,C559246,,,,,,
null,sound/6star.wav,,audio-keyboard-response,38,93520,0.0-2.0-1.15,dynamic,"3,2,6,1",male,31,10/2/87,English,United States of America,C559246,,,null,6,84,
280,,2,html-button-response,39,93802,0.0-2.0-0.16,dynamic,"3,2,6,1",male,31,10/2/87,English,United States of America,C559246,,,,,,
null,sound/6star.wav,,audio-keyboard-response,40,95304,0.0-2.0-1.16,dynamic,"3,2,6,1",male,31,10/2/87,English,United States of America,C559246,,,null,6,90,
304,,2,html-button-response,41,95609,0.0-2.0-0.17,dynamic,"3,2,6,1",male,31,10/2/87,English,United States of America,C559246,,,,,,
null,sound/6star.wav,,audio-keyboard-response,42,97110,0.0-2.0-1.17,dynamic,"3,2,6,1",male,31,10/2/87,English,United States of America,C559246,,,null,6,96,
346,,2,html-button-response,43,97458,0.0-2.0-0.18,dynamic,"3,2,6,1",male,31,10/2/87,English,United States of America,C559246,,,,,,
null,sound/6star.wav,,audio-keyboard-response,44,98961,0.0-2.0-1.18,dynamic,"3,2,6,1",male,31,10/2/87,English,United States of America,C559246,,,null,6,102,
280,,2,html-button-response,45,99242,0.0-2.0-0.19,dynamic,"3,2,6,1",male,31,10/2/87,English,United States of America,C559246,,,,,,
null,sound/6star.wav,,audio-keyboard-response,46,100744,0.0-2.0-1.19,dynamic,"3,2,6,1",male,31,10/2/87,English,United States of America,C559246,,,null,6,108,
536,,2,html-button-response,47,101282,0.0-2.0-0.20,dynamic,"3,2,6,1",male,31,10/2/87,English,United States of America,C559246,,,,,,
null,sound/6star.wav,,audio-keyboard-response,48,102784,0.0-2.0-1.20,dynamic,"3,2,6,1",male,31,10/2/87,English,United States of America,C559246,,,null,6,114,
336,,2,html-button-response,49,103121,0.0-2.0-0.21,dynamic,"3,2,6,1",male,31,10/2/87,English,United States of America,C559246,,,,,,
null,sound/6star.wav,,audio-keyboard-response,50,104624,0.0-2.0-1.21,dynamic,"3,2,6,1",male,31,10/2/87,English,United States of America,C559246,,,null,6,120,
378,,2,html-button-response,51,105002,0.0-2.0-0.22,dynamic,"3,2,6,1",male,31,10/2/87,English,United States of America,C559246,,,,,,
null,sound/6star.wav,,audio-keyboard-response,52,106505,0.0-2.0-1.22,dynamic,"3,2,6,1",male,31,10/2/87,English,United States of America,C559246,,,null,6,126,
320,,2,html-button-response,53,106826,0.0-2.0-0.23,dynamic,"3,2,6,1",male,31,10/2/87,English,United States of America,C559246,,,,,,
null,sound/6star.wav,,audio-keyboard-response,54,108329,0.0-2.0-1.23,dynamic,"3,2,6,1",male,31,10/2/87,English,United States of America,C559246,,,null,6,132,
313,,2,html-button-response,55,108642,0.0-2.0-0.24,dynamic,"3,2,6,1",male,31,10/2/87,English,United States of America,C559246,,,,,,
null,sound/6star.wav,,audio-keyboard-response,56,110144,0.0-2.0-1.24,dynamic,"3,2,6,1",male,31,10/2/87,English,United States of America,C559246,,,null,6,138,
329,,2,html-button-response,57,110474,0.0-2.0-0.25,dynamic,"3,2,6,1",male,31,10/2/87,English,United States of America,C559246,,,,,,
null,sound/6star.wav,,audio-keyboard-response,58,111977,0.0-2.0-1.25,dynamic,"3,2,6,1",male,31,10/2/87,English,United States of America,C559246,,,null,6,144,
327,,2,html-button-response,59,112306,0.0-2.0-0.26,dynamic,"3,2,6,1",male,31,10/2/87,English,United States of America,C559246,,,,,,
null,sound/6star.wav,,audio-keyboard-response,60,113809,0.0-2.0-1.26,dynamic,"3,2,6,1",male,31,10/2/87,English,United States of America,C559246,,,null,6,150,
391,,2,html-button-response,61,114202,0.0-2.0-0.27,dynamic,"3,2,6,1",male,31,10/2/87,English,United States of America,C559246,,,,,,
null,sound/6star.wav,,audio-keyboard-response,62,115703,0.0-2.0-1.27,dynamic,"3,2,6,1",male,31,10/2/87,English,United States of America,C559246,,,null,6,156,
393,,2,html-button-response,63,116098,0.0-2.0-0.28,dynamic,"3,2,6,1",male,31,10/2/87,English,United States of America,C559246,,,,,,
null,sound/6star.wav,,audio-keyboard-response,64,117602,0.0-2.0-1.28,dynamic,"3,2,6,1",male,31,10/2/87,English,United States of America,C559246,,,null,6,162,
383,,2,html-button-response,65,117986,0.0-2.0-0.29,dynamic,"3,2,6,1",male,31,10/2/87,English,United States of America,C559246,,,,,,
null,sound/6star.wav,,audio-keyboard-response,66,119489,0.0-2.0-1.29,dynamic,"3,2,6,1",male,31,10/2/87,English,United States of America,C559246,,,null,6,168,
352,,2,html-button-response,67,119842,0.0-2.0-0.30,dynamic,"3,2,6,1",male,31,10/2/87,English,United States of America,C559246,,,,,,
null,sound/6star.wav,,audio-keyboard-response,68,121344,0.0-2.0-1.30,dynamic,"3,2,6,1",male,31,10/2/87,English,United States of America,C559246,,,null,6,174,
351,,2,html-button-response,69,121698,0.0-2.0-0.31,dynamic,"3,2,6,1",male,31,10/2/87,English,United States of America,C559246,,,,,,
null,sound/6star.wav,,audio-keyboard-response,70,123201,0.0-2.0-1.31,dynamic,"3,2,6,1",male,31,10/2/87,English,United States of America,C559246,,,null,6,180,
183,,2,html-button-response,71,123386,0.0-2.0-0.32,dynamic,"3,2,6,1",male,31,10/2/87,English,United States of America,C559246,,,,,,
null,sound/6star.wav,,audio-keyboard-response,72,124889,0.0-2.0-1.32,dynamic,"3,2,6,1",male,31,10/2/87,English,United States of America,C559246,,,null,6,186,
181,,2,html-button-response,73,125073,0.0-2.0-0.33,dynamic,"3,2,6,1",male,31,10/2/87,English,United States of America,C559246,,,,,,
null,sound/6star.wav,,audio-keyboard-response,74,126575,0.0-2.0-1.33,dynamic,"3,2,6,1",male,31,10/2/87,English,United States of America,C559246,,,null,6,192,
362,,2,html-button-response,75,126938,0.0-2.0-0.34,dynamic,"3,2,6,1",male,31,10/2/87,English,United States of America,C559246,,,,,,
null,sound/6star.wav,,audio-keyboard-response,76,128439,0.0-2.0-1.34,dynamic,"3,2,6,1",male,31,10/2/87,English,United States of America,C559246,,,null,6,198,
370,,2,html-button-response,77,128810,0.0-2.0-0.35,dynamic,"3,2,6,1",male,31,10/2/87,English,United States of America,C559246,,,,,,
null,sound/6star.wav,,audio-keyboard-response,78,130315,0.0-2.0-1.35,dynamic,"3,2,6,1",male,31,10/2/87,English,United States of America,C559246,,,null,6,204,
454,,2,html-button-response,79,130769,0.0-2.0-0.36,dynamic,"3,2,6,1",male,31,10/2/87,English,United States of America,C559246,,,,,,
null,sound/6star.wav,,audio-keyboard-response,80,132273,0.0-2.0-1.36,dynamic,"3,2,6,1",male,31,10/2/87,English,United States of America,C559246,,,null,6,210,
159,,2,html-button-response,81,132433,0.0-2.0-0.37,dynamic,"3,2,6,1",male,31,10/2/87,English,United States of America,C559246,,,,,,
null,sound/6star.wav,,audio-keyboard-response,82,133936,0.0-2.0-1.37,dynamic,"3,2,6,1",male,31,10/2/87,English,United States of America,C559246,,,null,6,216,
217,,2,html-button-response,83,134154,0.0-2.0-0.38,dynamic,"3,2,6,1",male,31,10/2/87,English,United States of America,C559246,,,,,,
null,sound/6star.wav,,audio-keyboard-response,84,135658,0.0-2.0-1.38,dynamic,"3,2,6,1",male,31,10/2/87,English,United States of America,C559246,,,null,6,222,
215,,2,html-button-response,85,135874,0.0-2.0-0.39,dynamic,"3,2,6,1",male,31,10/2/87,English,United States of America,C559246,,,,,,
null,sound/6star.wav,,audio-keyboard-response,86,137377,0.0-2.0-1.39,dynamic,"3,2,6,1",male,31,10/2/87,English,United States of America,C559246,,,null,6,228,
231,,2,html-button-response,87,137609,0.0-3.0-0.0,dynamic,"3,2,6,1",male,31,10/2/87,English,United States of America,C559246,,,,,,
null,sound/6star.wav,,audio-keyboard-response,88,139114,0.0-3.0-1.0,dynamic,"3,2,6,1",male,31,10/2/87,English,United States of America,C559246,,,null,6,234,
190,,2,html-button-response,89,139305,0.0-3.0-0.1,dynamic,"3,2,6,1",male,31,10/2/87,English,United States of America,C559246,,,,,,
null,sound/6star.wav,,audio-keyboard-response,90,140807,0.0-3.0-1.1,dynamic,"3,2,6,1",male,31,10/2/87,English,United States of America,C559246,,,null,6,240,
137,,2,html-button-response,91,140945,0.0-3.0-0.2,dynamic,"3,2,6,1",male,31,10/2/87,English,United States of America,C559246,,,,,,
null,sound/6star.wav,,audio-keyboard-response,92,142448,0.0-3.0-1.2,dynamic,"3,2,6,1",male,31,10/2/87,English,United States of America,C559246,,,null,6,246,
128,,2,html-button-response,93,142578,0.0-3.0-0.3,dynamic,"3,2,6,1",male,31,10/2/87,English,United States of America,C559246,,,,,,
null,sound/6star.wav,,audio-keyboard-response,94,144083,0.0-3.0-1.3,dynamic,"3,2,6,1",male,31,10/2/87,English,United States of America,C559246,,,null,6,252,
142,,2,html-button-response,95,144226,0.0-3.0-0.4,dynamic,"3,2,6,1",male,31,10/2/87,English,United States of America,C559246,,,,,,
null,sound/6star.wav,,audio-keyboard-response,96,145728,0.0-3.0-1.4,dynamic,"3,2,6,1",male,31,10/2/87,English,United States of America,C559246,,,null,6,258,
351,,2,html-button-response,97,146081,0.0-3.0-0.5,dynamic,"3,2,6,1",male,31,10/2/87,English,United States of America,C559246,,,,,,
null,sound/6star.wav,,audio-keyboard-response,98,147583,0.0-3.0-1.5,dynamic,"3,2,6,1",male,31,10/2/87,English,United States of America,C559246,,,null,6,264,
385,,2,html-button-response,99,147970,0.0-3.0-0.6,dynamic,"3,2,6,1",male,31,10/2/87,English,United States of America,C559246,,,,,,
null,sound/6star.wav,,audio-keyboard-response,100,149472,0.0-3.0-1.6,dynamic,"3,2,6,1",male,31,10/2/87,English,United States of America,C559246,,,null,6,270,
408,,2,html-button-response,101,149882,0.0-3.0-0.7,dynamic,"3,2,6,1",male,31,10/2/87,English,United States of America,C559246,,,,,,
null,sound/6star.wav,,audio-keyboard-response,102,151383,0.0-3.0-1.7,dynamic,"3,2,6,1",male,31,10/2/87,English,United States of America,C559246,,,null,6,276,
226,,2,html-button-response,103,151610,0.0-3.0-0.8,dynamic,"3,2,6,1",male,31,10/2/87,English,United States of America,C559246,,,,,,
null,sound/6star.wav,,audio-keyboard-response,104,153112,0.0-3.0-1.8,dynamic,"3,2,6,1",male,31,10/2/87,English,United States of America,C559246,,,null,6,282,
345,,2,html-button-response,105,153458,0.0-3.0-0.9,dynamic,"3,2,6,1",male,31,10/2/87,English,United States of America,C559246,,,,,,
null,sound/6star.wav,,audio-keyboard-response,106,154962,0.0-3.0-1.9,dynamic,"3,2,6,1",male,31,10/2/87,English,United States of America,C559246,,,null,6,288,
254,,2,html-button-response,107,155218,0.0-3.0-0.10,dynamic,"3,2,6,1",male,31,10/2/87,English,United States of America,C559246,,,,,,
null,sound/6star.wav,,audio-keyboard-response,108,156721,0.0-3.0-1.10,dynamic,"3,2,6,1",male,31,10/2/87,English,United States of America,C559246,,,null,6,294,
423,,2,html-button-response,109,157145,0.0-3.0-0.11,dynamic,"3,2,6,1",male,31,10/2/87,English,United States of America,C559246,,,,,,
null,sound/6star.wav,,audio-keyboard-response,110,158647,0.0-3.0-1.11,dynamic,"3,2,6,1",male,31,10/2/87,English,United States of America,C559246,,,null,6,300,
362,,2,html-button-response,111,159009,0.0-3.0-0.12,dynamic,"3,2,6,1",male,31,10/2/87,English,United States of America,C559246,,,,,,
null,sound/6star.wav,,audio-keyboard-response,112,160511,0.0-3.0-1.12,dynamic,"3,2,6,1",male,31,10/2/87,English,United States of America,C559246,,,null,6,306,
305,,2,html-button-response,113,160818,0.0-3.0-0.13,dynamic,"3,2,6,1",male,31,10/2/87,English,United States of America,C559246,,,,,,
null,sound/6star.wav,,audio-keyboard-response,114,162321,0.0-3.0-1.13,dynamic,"3,2,6,1",male,31,10/2/87,English,United States of America,C559246,,,null,6,312,
199,,2,html-button-response,115,162521,0.0-3.0-0.14,dynamic,"3,2,6,1",male,31,10/2/87,English,United States of America,C559246,,,,,,
null,sound/6star.wav,,audio-keyboard-response,116,164023,0.0-3.0-1.14,dynamic,"3,2,6,1",male,31,10/2/87,English,United States of America,C559246,,,null,6,318,
337,,2,html-button-response,117,164362,0.0-3.0-0.15,dynamic,"3,2,6,1",male,31,10/2/87,English,United States of America,C559246,,,,,,
null,sound/6star.wav,,audio-keyboard-response,118,165865,0.0-3.0-1.15,dynamic,"3,2,6,1",male,31,10/2/87,English,United States of America,C559246,,,null,6,324,
415,,2,html-button-response,119,166281,0.0-3.0-0.16,dynamic,"3,2,6,1",male,31,10/2/87,English,United States of America,C559246,,,,,,
null,sound/6star.wav,,audio-keyboard-response,120,167784,0.0-3.0-1.16,dynamic,"3,2,6,1",male,31,10/2/87,English,United States of America,C559246,,,null,6,330,
240,,2,html-button-response,121,168026,0.0-3.0-0.17,dynamic,"3,2,6,1",male,31,10/2/87,English,United States of America,C559246,,,,,,
null,sound/6star.wav,,audio-keyboard-response,122,169529,0.0-3.0-1.17,dynamic,"3,2,6,1",male,31,10/2/87,English,United States of America,C559246,,,null,6,336,
272,,2,html-button-response,123,169801,0.0-3.0-0.18,dynamic,"3,2,6,1",male,31,10/2/87,English,United States of America,C559246,,,,,,
null,sound/6star.wav,,audio-keyboard-response,124,171303,0.0-3.0-1.18,dynamic,"3,2,6,1",male,31,10/2/87,English,United States of America,C559246,,,null,6,342,
322,,2,html-button-response,125,171626,0.0-3.0-0.19,dynamic,"3,2,6,1",male,31,10/2/87,English,United States of America,C559246,,,,,,
null,sound/6star.wav,,audio-keyboard-response,126,173128,0.0-3.0-1.19,dynamic,"3,2,6,1",male,31,10/2/87,English,United States of America,C559246,,,null,6,348,
144,,2,html-button-response,127,173273,0.0-3.0-0.20,dynamic,"3,2,6,1",male,31,10/2/87,English,United States of America,C559246,,,,,,
null,sound/6star.wav,,audio-keyboard-response,128,174776,0.0-3.0-1.20,dynamic,"3,2,6,1",male,31,10/2/87,English,United States of America,C559246,,,null,6,354,
168,,2,html-button-response,129,174945,0.0-3.0-0.21,dynamic,"3,2,6,1",male,31,10/2/87,English,United States of America,C559246,,,,,,
null,sound/6star.wav,,audio-keyboard-response,130,176447,0.0-3.0-1.21,dynamic,"3,2,6,1",male,31,10/2/87,English,United States of America,C559246,,,null,6,360,
225,,2,html-button-response,131,176673,0.0-3.0-0.22,dynamic,"3,2,6,1",male,31,10/2/87,English,United States of America,C559246,,,,,,
null,sound/6star.wav,,audio-keyboard-response,132,178175,0.0-3.0-1.22,dynamic,"3,2,6,1",male,31,10/2/87,English,United States of America,C559246,,,null,6,366,
265,,2,html-button-response,133,178442,0.0-3.0-0.23,dynamic,"3,2,6,1",male,31,10/2/87,English,United States of America,C559246,,,,,,
null,sound/6star.wav,,audio-keyboard-response,134,179945,0.0-3.0-1.23,dynamic,"3,2,6,1",male,31,10/2/87,English,United States of America,C559246,,,null,6,372,
360,,2,html-button-response,135,180306,0.0-3.0-0.24,dynamic,"3,2,6,1",male,31,10/2/87,English,United States of America,C559246,,,,,,
null,sound/6star.wav,,audio-keyboard-response,136,181807,0.0-3.0-1.24,dynamic,"3,2,6,1",male,31,10/2/87,English,United States of America,C559246,,,null,6,378,
409,,2,html-button-response,137,182218,0.0-3.0-0.25,dynamic,"3,2,6,1",male,31,10/2/87,English,United States of America,C559246,,,,,,
null,sound/6star.wav,,audio-keyboard-response,138,183721,0.0-3.0-1.25,dynamic,"3,2,6,1",male,31,10/2/87,English,United States of America,C559246,,,null,6,384,
528,,2,html-button-response,139,184250,0.0-3.0-0.26,dynamic,"3,2,6,1",male,31,10/2/87,English,United States of America,C559246,,,,,,
null,sound/6star.wav,,audio-keyboard-response,140,185752,0.0-3.0-1.26,dynamic,"3,2,6,1",male,31,10/2/87,English,United States of America,C559246,,,null,6,390,
232,,2,html-button-response,141,185985,0.0-3.0-0.27,dynamic,"3,2,6,1",male,31,10/2/87,English,United States of America,C559246,,,,,,
null,sound/6star.wav,,audio-keyboard-response,142,187487,0.0-3.0-1.27,dynamic,"3,2,6,1",male,31,10/2/87,English,United States of America,C559246,,,null,6,396,
1465,,2,html-button-response,143,188954,0.0-3.0-0.28,dynamic,"3,2,6,1",male,31,10/2/87,English,United States of America,C559246,,,,,,
null,sound/6star.wav,,audio-keyboard-response,144,190458,0.0-3.0-1.28,dynamic,"3,2,6,1",male,31,10/2/87,English,United States of America,C559246,,,null,6,402,
615,,2,html-button-response,145,191073,0.0-3.0-0.29,dynamic,"3,2,6,1",male,31,10/2/87,English,United States of America,C559246,,,,,,
null,sound/6star.wav,,audio-keyboard-response,146,192576,0.0-3.0-1.29,dynamic,"3,2,6,1",male,31,10/2/87,English,United States of America,C559246,,,null,6,408,
282,,2,html-button-response,147,192858,0.0-3.0-0.30,dynamic,"3,2,6,1",male,31,10/2/87,English,United States of America,C559246,,,,,,
null,sound/6star.wav,,audio-keyboard-response,148,194361,0.0-3.0-1.30,dynamic,"3,2,6,1",male,31,10/2/87,English,United States of America,C559246,,,null,6,414,
367,,2,html-button-response,149,194730,0.0-3.0-0.31,dynamic,"3,2,6,1",male,31,10/2/87,English,United States of America,C559246,,,,,,
null,sound/6star.wav,,audio-keyboard-response,150,196232,0.0-3.0-1.31,dynamic,"3,2,6,1",male,31,10/2/87,English,United States of America,C559246,,,null,6,420,
568,,2,html-button-response,151,196802,0.0-3.0-0.32,dynamic,"3,2,6,1",male,31,10/2/87,English,United States of America,C559246,,,,,,
null,sound/6star.wav,,audio-keyboard-response,152,198305,0.0-3.0-1.32,dynamic,"3,2,6,1",male,31,10/2/87,English,United States of America,C559246,,,null,6,426,
407,,2,html-button-response,153,198714,0.0-3.0-0.33,dynamic,"3,2,6,1",male,31,10/2/87,English,United States of America,C559246,,,,,,
null,sound/6star.wav,,audio-keyboard-response,154,200217,0.0-3.0-1.33,dynamic,"3,2,6,1",male,31,10/2/87,English,United States of America,C559246,,,null,6,432,
448,,2,html-button-response,155,200666,0.0-3.0-0.34,dynamic,"3,2,6,1",male,31,10/2/87,English,United States of America,C559246,,,,,,
null,sound/6star.wav,,audio-keyboard-response,156,202169,0.0-3.0-1.34,dynamic,"3,2,6,1",male,31,10/2/87,English,United States of America,C559246,,,null,6,438,
279,,2,html-button-response,157,202450,0.0-3.0-0.35,dynamic,"3,2,6,1",male,31,10/2/87,English,United States of America,C559246,,,,,,
null,sound/6star.wav,,audio-keyboard-response,158,203951,0.0-3.0-1.35,dynamic,"3,2,6,1",male,31,10/2/87,English,United States of America,C559246,,,null,6,444,
563,,2,html-button-response,159,204515,0.0-3.0-0.36,dynamic,"3,2,6,1",male,31,10/2/87,English,United States of America,C559246,,,,,,
null,sound/6star.wav,,audio-keyboard-response,160,206017,0.0-3.0-1.36,dynamic,"3,2,6,1",male,31,10/2/87,English,United States of America,C559246,,,null,6,450,
335,,2,html-button-response,161,206353,0.0-3.0-0.37,dynamic,"3,2,6,1",male,31,10/2/87,English,United States of America,C559246,,,,,,
null,sound/6star.wav,,audio-keyboard-response,162,207855,0.0-3.0-1.37,dynamic,"3,2,6,1",male,31,10/2/87,English,United States of America,C559246,,,null,6,456,
362,,2,html-button-response,163,208218,0.0-3.0-0.38,dynamic,"3,2,6,1",male,31,10/2/87,English,United States of America,C559246,,,,,,
null,sound/6star.wav,,audio-keyboard-response,164,209720,0.0-3.0-1.38,dynamic,"3,2,6,1",male,31,10/2/87,English,United States of America,C559246,,,null,6,462,
306,,2,html-button-response,165,210026,0.0-3.0-0.39,dynamic,"3,2,6,1",male,31,10/2/87,English,United States of America,C559246,,,,,,
null,sound/6star.wav,,audio-keyboard-response,166,211529,0.0-3.0-1.39,dynamic,"3,2,6,1",male,31,10/2/87,English,United States of America,C559246,,,null,6,468,
3839,sound/celebration.wav,0,audio-button-response,167,215370,0.0-4.0,dynamic,"3,2,6,1",male,31,10/2/87,English,United States of America,C559246,,,,,,
7175,"Which, if any, of these monsters ever gave you <b>1 star</b>?</p>",3,html-button-response,168,222546,0.0-5.0-0.0,dynamic,"3,2,6,1",male,31,10/2/87,English,United States of America,C559246,,,,,,correct
1076,"Which, if any, of these monsters ever gave you <b>2 stars</b>?</p>",1,html-button-response,169,224426,0.0-6.0-0.0,dynamic,"3,2,6,1",male,31,10/2/87,English,United States of America,C559246,,,,,,correct
1437,"Which, if any, of these monsters ever gave you <b>3 stars</b>?</p>",0,html-button-response,170,226665,0.0-7.0-0.0,dynamic,"3,2,6,1",male,31,10/2/87,English,United States of America,C559246,,,,,,correct
933,"Which, if any, of these monsters ever gave you <b>6 stars</b>?</p>",2,html-button-response,171,228602,0.0-8.0-0.0,dynamic,"3,2,6,1",male,31,10/2/87,English,United States of America,C559246,,,,,,correct
3588,"Which, if any, of these monsters ever gave you <b>8 stars</b>?</p>",4,html-button-response,172,232994,0.0-9.0-0.0,dynamic,"3,2,6,1",male,31,10/2/87,English,United States of America,C559246,,,,,,incorrect
1670,Which monster did you like the most?</p>,2,html-button-response,173,235466,0.0-10.0-0.0,dynamic,"3,2,6,1",male,31,10/2/87,English,United States of America,C559246,,,,,,
10917,,,survey-text,174,247185,0.0-11.0,dynamic,"3,2,6,1",male,31,10/2/87,English,United States of America,C559246,,"\{""Q0"":""It gave me the most stars.""\}",,,,
rt,stimulus,button_pressed,trial_type,trial_index,time_elapsed,internal_node_id,condition,pointvals_firsthalf,gender,age,dob,language,country,turkcode,animation_sequence,responses,key_press,earnedThis,earnedCumulative,posttest
11773,"<p>Hi! Welcome to the experiment. This study takes the form of a simple decision making task.<br> It is designed to help us learn how children make decisions, so it will look like a kid's game.<br> However, in order to understand how kids make choices, we need to compare what they do to adults<br> doing the same task. That's you! Because of this, we ask you to take the task seriously and do your<br>best, even if the task seems like a strange thing for an adult to do.</p>",0,html-button-response,0,11776,0.0-0.0-0.0-0.0,static,"6,3,1,2",m,36,11/3/82,English,United States of America,C145658,,,,,,
,,,animation,1,23777,0.0-0.0-1.0,static,"6,3,1,2",m,36,11/3/82,English,United States of America,C145658,"[\{""stimulus"":""img/screen1a.png"",""time"":3000\},\{""stimulus"":""img/screen1b.png"",""time"":6000\},\{""stimulus"":""img/screen1c.png"",""time"":9001\}]",[],,,,
2885,<img src='img/screen1d.png'></img>,0,html-button-response,2,26664,0.0-0.0-2.0,static,"6,3,1,2",m,36,11/3/82,English,United States of America,C145658,,,,,,
,,,animation,3,47465,0.0-0.0-3.0,static,"6,3,1,2",m,36,11/3/82,English,United States of America,C145658,"[\{""stimulus"":""img/screen2.jpg"",""time"":801\},\{""stimulus"":""img/screen2.jpg"",""time"":1600\},\{""stimulus"":""img/screen2.jpg"",""time"":2401\},\{""stimulus"":""img/screen2.jpg"",""time"":3200\},\{""stimulus"":""img/screen2.jpg"",""time"":4000\},\{""stimulus"":""img/screen3a.jpg"",""time"":4801\},\{""stimulus"":""img/screen3b.jpg"",""time"":5600\},\{""stimulus"":""img/screen3c.jpg"",""time"":6400\},\{""stimulus"":""img/screen3d.jpg"",""time"":7200\},\{""stimulus"":""img/screen4a.jpg"",""time"":8001\},\{""stimulus"":""img/screen4a.jpg"",""time"":8800\},\{""stimulus"":""img/screen4b.jpg"",""time"":9600\},\{""stimulus"":""img/screen4c.jpg"",""time"":10400\},\{""stimulus"":""img/screen4d.jpg"",""time"":11200\},\{""stimulus"":""img/screen4d.jpg"",""time"":12001\},\{""stimulus"":""img/screen5a.jpg"",""time"":12800\},\{""stimulus"":""img/screen5b1.jpg"",""time"":13601\},\{""stimulus"":""img/screen5b2.jpg"",""time"":14401\},\{""stimulus"":""img/screen5b3.jpg"",""time"":15200\},\{""stimulus"":""img/screen5b4.jpg"",""time"":16001\},\{""stimulus"":""img/screen5b5.jpg"",""time"":16800\},\{""stimulus"":""img/screen5b6.jpg"",""time"":17601\},\{""stimulus"":""img/screen5c.jpg"",""time"":18400\},\{""stimulus"":""img/screen5d.jpg"",""time"":19200\},\{""stimulus"":""img/screen5d.jpg"",""time"":20000\}]",[],,,,
1536,<img src='img/screen5e.jpg'></img>,0,html-button-response,4,49001,0.0-0.0-4.0,static,"6,3,1,2",m,36,11/3/82,English,United States of America,C145658,,,,,,
9449,,,survey-multi-choice,5,58461,0.0-0.0-5.0,static,"6,3,1,2",m,36,11/3/82,English,United States of America,C145658,,"\{""Q0"":"" You click on the monsters"",""Q1"":"" Because the main study will have children participating""\}",,,,
1492,Well done!,0,html-button-response,6,59954,0.0-1.0,static,"6,3,1,2",m,36,11/3/82,English,United States of America,C145658,,,,,,
11838,,0,html-button-response,7,71794,0.0-2.0-0.0,static,"6,3,1,2",m,36,11/3/82,English,United States of America,C145658,,,,,,
null,sound/6star.wav,,audio-keyboard-response,8,73298,0.0-2.0-1.0,static,"6,3,1,2",m,36,11/3/82,English,United States of America,C145658,,,null,6,6,
10089,,1,html-button-response,9,83388,0.0-2.0-0.1,static,"6,3,1,2",m,36,11/3/82,English,United States of America,C145658,,,,,,
null,sound/3star.wav,,audio-keyboard-response,10,84889,0.0-2.0-1.1,static,"6,3,1,2",m,36,11/3/82,English,United States of America,C145658,,,null,3,9,
11792,,2,html-button-response,11,96682,0.0-2.0-0.2,static,"6,3,1,2",m,36,11/3/82,English,United States of America,C145658,,,,,,
null,sound/1star.wav,,audio-keyboard-response,12,98183,0.0-2.0-1.2,static,"6,3,1,2",m,36,11/3/82,English,United States of America,C145658,,,null,1,10,
12865,,3,html-button-response,13,111050,0.0-2.0-0.3,static,"6,3,1,2",m,36,11/3/82,English,United States of America,C145658,,,,,,
null,sound/2star.wav,,audio-keyboard-response,14,112550,0.0-2.0-1.3,static,"6,3,1,2",m,36,11/3/82,English,United States of America,C145658,,,null,2,12,
24131,,0,html-button-response,15,136683,0.0-2.0-0.4,static,"6,3,1,2",m,36,11/3/82,English,United States of America,C145658,,,,,,
null,sound/6star.wav,,audio-keyboard-response,16,138184,0.0-2.0-1.4,static,"6,3,1,2",m,36,11/3/82,English,United States of America,C145658,,,null,6,18,
1902,,0,html-button-response,17,140087,0.0-2.0-0.5,static,"6,3,1,2",m,36,11/3/82,English,United States of America,C145658,,,,,,
null,sound/6star.wav,,audio-keyboard-response,18,141587,0.0-2.0-1.5,static,"6,3,1,2",m,36,11/3/82,English,United States of America,C145658,,,null,6,24,
491,,0,html-button-response,19,142079,0.0-2.0-0.6,static,"6,3,1,2",m,36,11/3/82,English,United States of America,C145658,,,,,,
null,sound/6star.wav,,audio-keyboard-response,20,143581,0.0-2.0-1.6,static,"6,3,1,2",m,36,11/3/82,English,United States of America,C145658,,,null,6,30,
470,,0,html-button-response,21,144053,0.0-2.0-0.7,static,"6,3,1,2",m,36,11/3/82,English,United States of America,C145658,,,,,,
null,sound/6star.wav,,audio-keyboard-response,22,145554,0.0-2.0-1.7,static,"6,3,1,2",m,36,11/3/82,English,United States of America,C145658,,,null,6,36,
380,,0,html-button-response,23,145936,0.0-2.0-0.8,static,"6,3,1,2",m,36,11/3/82,English,United States of America,C145658,,,,,,
null,sound/6star.wav,,audio-keyboard-response,24,147452,0.0-2.0-1.8,static,"6,3,1,2",m,36,11/3/82,English,United States of America,C145658,,,null,6,42,
441,,0,html-button-response,25,147895,0.0-2.0-0.9,static,"6,3,1,2",m,36,11/3/82,English,United States of America,C145658,,,,,,
null,sound/6star.wav,,audio-keyboard-response,26,149397,0.0-2.0-1.9,static,"6,3,1,2",m,36,11/3/82,English,United States of America,C145658,,,null,6,48,
431,,0,html-button-response,27,149830,0.0-2.0-0.10,static,"6,3,1,2",m,36,11/3/82,English,United States of America,C145658,,,,,,
null,sound/6star.wav,,audio-keyboard-response,28,151330,0.0-2.0-1.10,static,"6,3,1,2",m,36,11/3/82,English,United States of America,C145658,,,null,6,54,
387,,0,html-button-response,29,151719,0.0-2.0-0.11,static,"6,3,1,2",m,36,11/3/82,English,United States of America,C145658,,,,,,
null,sound/6star.wav,,audio-keyboard-response,30,153219,0.0-2.0-1.11,static,"6,3,1,2",m,36,11/3/82,English,United States of America,C145658,,,null,6,60,
427,,0,html-button-response,31,153647,0.0-2.0-0.12,static,"6,3,1,2",m,36,11/3/82,English,United States of America,C145658,,,,,,
null,sound/6star.wav,,audio-keyboard-response,32,155149,0.0-2.0-1.12,static,"6,3,1,2",m,36,11/3/82,English,United States of America,C145658,,,null,6,66,
581,,0,html-button-response,33,155731,0.0-2.0-0.13,static,"6,3,1,2",m,36,11/3/82,English,United States of America,C145658,,,,,,
null,sound/6star.wav,,audio-keyboard-response,34,157231,0.0-2.0-1.13,static,"6,3,1,2",m,36,11/3/82,English,United States of America,C145658,,,null,6,72,
599,,0,html-button-response,35,157831,0.0-2.0-0.14,static,"6,3,1,2",m,36,11/3/82,English,United States of America,C145658,,,,,,
null,sound/6star.wav,,audio-keyboard-response,36,159332,0.0-2.0-1.14,static,"6,3,1,2",m,36,11/3/82,English,United States of America,C145658,,,null,6,78,
340,,0,html-button-response,37,159673,0.0-2.0-0.15,static,"6,3,1,2",m,36,11/3/82,English,United States of America,C145658,,,,,,
null,sound/6star.wav,,audio-keyboard-response,38,161175,0.0-2.0-1.15,static,"6,3,1,2",m,36,11/3/82,English,United States of America,C145658,,,null,6,84,
589,,0,html-button-response,39,161765,0.0-2.0-0.16,static,"6,3,1,2",m,36,11/3/82,English,United States of America,C145658,,,,,,
null,sound/6star.wav,,audio-keyboard-response,40,163267,0.0-2.0-1.16,static,"6,3,1,2",m,36,11/3/82,English,United States of America,C145658,,,null,6,90,
891,,1,html-button-response,41,164160,0.0-2.0-0.17,static,"6,3,1,2",m,36,11/3/82,English,United States of America,C145658,,,,,,
null,sound/3star.wav,,audio-keyboard-response,42,165661,0.0-2.0-1.17,static,"6,3,1,2",m,36,11/3/82,English,United States of America,C145658,,,null,3,93,
1621,,0,html-button-response,43,167283,0.0-2.0-0.18,static,"6,3,1,2",m,36,11/3/82,English,United States of America,C145658,,,,,,
null,sound/6star.wav,,audio-keyboard-response,44,168783,0.0-2.0-1.18,static,"6,3,1,2",m,36,11/3/82,English,United States of America,C145658,,,null,6,99,
233,,0,html-button-response,45,169018,0.0-2.0-0.19,static,"6,3,1,2",m,36,11/3/82,English,United States of America,C145658,,,,,,
null,sound/6star.wav,,audio-keyboard-response,46,170519,0.0-2.0-1.19,static,"6,3,1,2",m,36,11/3/82,English,United States of America,C145658,,,null,6,105,
215,,0,html-button-response,47,170735,0.0-2.0-0.20,static,"6,3,1,2",m,36,11/3/82,English,United States of America,C145658,,,,,,
null,sound/6star.wav,,audio-keyboard-response,48,172236,0.0-2.0-1.20,static,"6,3,1,2",m,36,11/3/82,English,United States of America,C145658,,,null,6,111,
178,,0,html-button-response,49,172415,0.0-2.0-0.21,static,"6,3,1,2",m,36,11/3/82,English,United States of America,C145658,,,,,,
null,sound/6star.wav,,audio-keyboard-response,50,173916,0.0-2.0-1.21,static,"6,3,1,2",m,36,11/3/82,English,United States of America,C145658,,,null,6,117,
589,,0,html-button-response,51,174507,0.0-2.0-0.22,static,"6,3,1,2",m,36,11/3/82,English,United States of America,C145658,,,,,,
null,sound/6star.wav,,audio-keyboard-response,52,176010,0.0-2.0-1.22,static,"6,3,1,2",m,36,11/3/82,English,United States of America,C145658,,,null,6,123,
408,,0,html-button-response,53,176419,0.0-2.0-0.23,static,"6,3,1,2",m,36,11/3/82,English,United States of America,C145658,,,,,,
null,sound/6star.wav,,audio-keyboard-response,54,177920,0.0-2.0-1.23,static,"6,3,1,2",m,36,11/3/82,English,United States of America,C145658,,,null,6,129,
1156,,0,html-button-response,55,179078,0.0-2.0-0.24,static,"6,3,1,2",m,36,11/3/82,English,United States of America,C145658,,,,,,
null,sound/6star.wav,,audio-keyboard-response,56,180578,0.0-2.0-1.24,static,"6,3,1,2",m,36,11/3/82,English,United States of America,C145658,,,null,6,135,
1026,,0,html-button-response,57,181606,0.0-2.0-0.25,static,"6,3,1,2",m,36,11/3/82,English,United States of America,C145658,,,,,,
null,sound/6star.wav,,audio-keyboard-response,58,183106,0.0-2.0-1.25,static,"6,3,1,2",m,36,11/3/82,English,United States of America,C145658,,,null,6,141,
496,,0,html-button-response,59,183603,0.0-2.0-0.26,static,"6,3,1,2",m,36,11/3/82,English,United States of America,C145658,,,,,,
null,sound/6star.wav,,audio-keyboard-response,60,185104,0.0-2.0-1.26,static,"6,3,1,2",m,36,11/3/82,English,United States of America,C145658,,,null,6,147,
550,,0,html-button-response,61,185655,0.0-2.0-0.27,static,"6,3,1,2",m,36,11/3/82,English,United States of America,C145658,,,,,,
null,sound/6star.wav,,audio-keyboard-response,62,187158,0.0-2.0-1.27,static,"6,3,1,2",m,36,11/3/82,English,United States of America,C145658,,,null,6,153,
424,,0,html-button-response,63,187585,0.0-2.0-0.28,static,"6,3,1,2",m,36,11/3/82,English,United States of America,C145658,,,,,,
null,sound/6star.wav,,audio-keyboard-response,64,189086,0.0-2.0-1.28,static,"6,3,1,2",m,36,11/3/82,English,United States of America,C145658,,,null,6,159,
230,,0,html-button-response,65,189317,0.0-2.0-0.29,static,"6,3,1,2",m,36,11/3/82,English,United States of America,C145658,,,,,,
null,sound/6star.wav,,audio-keyboard-response,66,190817,0.0-2.0-1.29,static,"6,3,1,2",m,36,11/3/82,English,United States of America,C145658,,,null,6,165,
303,,0,html-button-response,67,191121,0.0-2.0-0.30,static,"6,3,1,2",m,36,11/3/82,English,United States of America,C145658,,,,,,
null,sound/6star.wav,,audio-keyboard-response,68,192622,0.0-2.0-1.30,static,"6,3,1,2",m,36,11/3/82,English,United States of America,C145658,,,null,6,171,
306,,0,html-button-response,69,192932,0.0-2.0-0.31,static,"6,3,1,2",m,36,11/3/82,English,United States of America,C145658,,,,,,
null,sound/6star.wav,,audio-keyboard-response,70,194432,0.0-2.0-1.31,static,"6,3,1,2",m,36,11/3/82,English,United States of America,C145658,,,null,6,177,
194,,0,html-button-response,71,194628,0.0-2.0-0.32,static,"6,3,1,2",m,36,11/3/82,English,United States of America,C145658,,,,,,
null,sound/6star.wav,,audio-keyboard-response,72,196132,0.0-2.0-1.32,static,"6,3,1,2",m,36,11/3/82,English,United States of America,C145658,,,null,6,183,
740,,0,html-button-response,73,196873,0.0-2.0-0.33,static,"6,3,1,2",m,36,11/3/82,English,United States of America,C145658,,,,,,
null,sound/6star.wav,,audio-keyboard-response,74,198374,0.0-2.0-1.33,static,"6,3,1,2",m,36,11/3/82,English,United States of America,C145658,,,null,6,189,
294,,0,html-button-response,75,198670,0.0-2.0-0.34,static,"6,3,1,2",m,36,11/3/82,English,United States of America,C145658,,,,,,
null,sound/6star.wav,,audio-keyboard-response,76,200171,0.0-2.0-1.34,static,"6,3,1,2",m,36,11/3/82,English,United States of America,C145658,,,null,6,195,
209,,0,html-button-response,77,200381,0.0-2.0-0.35,static,"6,3,1,2",m,36,11/3/82,English,United States of America,C145658,,,,,,
null,sound/6star.wav,,audio-keyboard-response,78,201884,0.0-2.0-1.35,static,"6,3,1,2",m,36,11/3/82,English,United States of America,C145658,,,null,6,201,
251,,0,html-button-response,79,202139,0.0-2.0-0.36,static,"6,3,1,2",m,36,11/3/82,English,United States of America,C145658,,,,,,
null,sound/6star.wav,,audio-keyboard-response,80,203641,0.0-2.0-1.36,static,"6,3,1,2",m,36,11/3/82,English,United States of America,C145658,,,null,6,207,
183,,0,html-button-response,81,203825,0.0-2.0-0.37,static,"6,3,1,2",m,36,11/3/82,English,United States of America,C145658,,,,,,
null,sound/6star.wav,,audio-keyboard-response,82,205325,0.0-2.0-1.37,static,"6,3,1,2",m,36,11/3/82,English,United States of America,C145658,,,null,6,213,
217,,0,html-button-response,83,205543,0.0-2.0-0.38,static,"6,3,1,2",m,36,11/3/82,English,United States of America,C145658,,,,,,
null,sound/6star.wav,,audio-keyboard-response,84,207045,0.0-2.0-1.38,static,"6,3,1,2",m,36,11/3/82,English,United States of America,C145658,,,null,6,219,
455,,0,html-button-response,85,207501,0.0-2.0-0.39,static,"6,3,1,2",m,36,11/3/82,English,United States of America,C145658,,,,,,
null,sound/6star.wav,,audio-keyboard-response,86,209003,0.0-2.0-1.39,static,"6,3,1,2",m,36,11/3/82,English,United States of America,C145658,,,null,6,225,
215,,0,html-button-response,87,209219,0.0-3.0-0.0,static,"6,3,1,2",m,36,11/3/82,English,United States of America,C145658,,,,,,
null,sound/6star.wav,,audio-keyboard-response,88,210722,0.0-3.0-1.0,static,"6,3,1,2",m,36,11/3/82,English,United States of America,C145658,,,null,6,231,
214,,0,html-button-response,89,210937,0.0-3.0-0.1,static,"6,3,1,2",m,36,11/3/82,English,United States of America,C145658,,,,,,
null,sound/6star.wav,,audio-keyboard-response,90,212438,0.0-3.0-1.1,static,"6,3,1,2",m,36,11/3/82,English,United States of America,C145658,,,null,6,237,
334,,0,html-button-response,91,212773,0.0-3.0-0.2,static,"6,3,1,2",m,36,11/3/82,English,United States of America,C145658,,,,,,
null,sound/6star.wav,,audio-keyboard-response,92,214274,0.0-3.0-1.2,static,"6,3,1,2",m,36,11/3/82,English,United States of America,C145658,,,null,6,243,
246,,0,html-button-response,93,214521,0.0-3.0-0.3,static,"6,3,1,2",m,36,11/3/82,English,United States of America,C145658,,,,,,
null,sound/6star.wav,,audio-keyboard-response,94,216022,0.0-3.0-1.3,static,"6,3,1,2",m,36,11/3/82,English,United States of America,C145658,,,null,6,249,
372,,0,html-button-response,95,216395,0.0-3.0-0.4,static,"6,3,1,2",m,36,11/3/82,English,United States of America,C145658,,,,,,
null,sound/6star.wav,,audio-keyboard-response,96,217895,0.0-3.0-1.4,static,"6,3,1,2",m,36,11/3/82,English,United States of America,C145658,,,null,6,255,
209,,0,html-button-response,97,218106,0.0-3.0-0.5,static,"6,3,1,2",m,36,11/3/82,English,United States of America,C145658,,,,,,
null,sound/6star.wav,,audio-keyboard-response,98,219607,0.0-3.0-1.5,static,"6,3,1,2",m,36,11/3/82,English,United States of America,C145658,,,null,6,261,
441,,0,html-button-response,99,220049,0.0-3.0-0.6,static,"6,3,1,2",m,36,11/3/82,English,United States of America,C145658,,,,,,
null,sound/6star.wav,,audio-keyboard-response,100,221551,0.0-3.0-1.6,static,"6,3,1,2",m,36,11/3/82,English,United States of America,C145658,,,null,6,267,
201,,0,html-button-response,101,221753,0.0-3.0-0.7,static,"6,3,1,2",m,36,11/3/82,English,United States of America,C145658,,,,,,
null,sound/6star.wav,,audio-keyboard-response,102,223256,0.0-3.0-1.7,static,"6,3,1,2",m,36,11/3/82,English,United States of America,C145658,,,null,6,273,
330,,0,html-button-response,103,223588,0.0-3.0-0.8,static,"6,3,1,2",m,36,11/3/82,English,United States of America,C145658,,,,,,
null,sound/6star.wav,,audio-keyboard-response,104,225089,0.0-3.0-1.8,static,"6,3,1,2",m,36,11/3/82,English,United States of America,C145658,,,null,6,279,
207,,0,html-button-response,105,225297,0.0-3.0-0.9,static,"6,3,1,2",m,36,11/3/82,English,United States of America,C145658,,,,,,
null,sound/6star.wav,,audio-keyboard-response,106,226798,0.0-3.0-1.9,static,"6,3,1,2",m,36,11/3/82,English,United States of America,C145658,,,null,6,285,
310,,0,html-button-response,107,227109,0.0-3.0-0.10,static,"6,3,1,2",m,36,11/3/82,English,United States of America,C145658,,,,,,
null,sound/6star.wav,,audio-keyboard-response,108,228609,0.0-3.0-1.10,static,"6,3,1,2",m,36,11/3/82,English,United States of America,C145658,,,null,6,291,
201,,0,html-button-response,109,228812,0.0-3.0-0.11,static,"6,3,1,2",m,36,11/3/82,English,United States of America,C145658,,,,,,
null,sound/6star.wav,,audio-keyboard-response,110,230312,0.0-3.0-1.11,static,"6,3,1,2",m,36,11/3/82,English,United States of America,C145658,,,null,6,297,
426,,0,html-button-response,111,230739,0.0-3.0-0.12,static,"6,3,1,2",m,36,11/3/82,English,United States of America,C145658,,,,,,
null,sound/6star.wav,,audio-keyboard-response,112,232239,0.0-3.0-1.12,static,"6,3,1,2",m,36,11/3/82,English,United States of America,C145658,,,null,6,303,
436,,0,html-button-response,113,232675,0.0-3.0-0.13,static,"6,3,1,2",m,36,11/3/82,English,United States of America,C145658,,,,,,
null,sound/6star.wav,,audio-keyboard-response,114,234176,0.0-3.0-1.13,static,"6,3,1,2",m,36,11/3/82,English,United States of America,C145658,,,null,6,309,
162,,0,html-button-response,115,234340,0.0-3.0-0.14,static,"6,3,1,2",m,36,11/3/82,English,United States of America,C145658,,,,,,
null,sound/6star.wav,,audio-keyboard-response,116,235840,0.0-3.0-1.14,static,"6,3,1,2",m,36,11/3/82,English,United States of America,C145658,,,null,6,315,
278,,0,html-button-response,117,236119,0.0-3.0-0.15,static,"6,3,1,2",m,36,11/3/82,English,United States of America,C145658,,,,,,
null,sound/6star.wav,,audio-keyboard-response,118,237620,0.0-3.0-1.15,static,"6,3,1,2",m,36,11/3/82,English,United States of America,C145658,,,null,6,321,
480,,0,html-button-response,119,238101,0.0-3.0-0.16,static,"6,3,1,2",m,36,11/3/82,English,United States of America,C145658,,,,,,
null,sound/6star.wav,,audio-keyboard-response,120,239602,0.0-3.0-1.16,static,"6,3,1,2",m,36,11/3/82,English,United States of America,C145658,,,null,6,327,
153,,0,html-button-response,121,239757,0.0-3.0-0.17,static,"6,3,1,2",m,36,11/3/82,English,United States of America,C145658,,,,,,
null,sound/6star.wav,,audio-keyboard-response,122,241259,0.0-3.0-1.17,static,"6,3,1,2",m,36,11/3/82,English,United States of America,C145658,,,null,6,333,
238,,0,html-button-response,123,241499,0.0-3.0-0.18,static,"6,3,1,2",m,36,11/3/82,English,United States of America,C145658,,,,,,
null,sound/6star.wav,,audio-keyboard-response,124,243001,0.0-3.0-1.18,static,"6,3,1,2",m,36,11/3/82,English,United States of America,C145658,,,null,6,339,
277,,0,html-button-response,125,243280,0.0-3.0-0.19,static,"6,3,1,2",m,36,11/3/82,English,United States of America,C145658,,,,,,
null,sound/6star.wav,,audio-keyboard-response,126,244782,0.0-3.0-1.19,static,"6,3,1,2",m,36,11/3/82,English,United States of America,C145658,,,null,6,345,
268,,0,html-button-response,127,245051,0.0-3.0-0.20,static,"6,3,1,2",m,36,11/3/82,English,United States of America,C145658,,,,,,
null,sound/6star.wav,,audio-keyboard-response,128,246552,0.0-3.0-1.20,static,"6,3,1,2",m,36,11/3/82,English,United States of America,C145658,,,null,6,351,
201,,0,html-button-response,129,246755,0.0-3.0-0.21,static,"6,3,1,2",m,36,11/3/82,English,United States of America,C145658,,,,,,
null,sound/6star.wav,,audio-keyboard-response,130,248257,0.0-3.0-1.21,static,"6,3,1,2",m,36,11/3/82,English,United States of America,C145658,,,null,6,357,
253,,0,html-button-response,131,248512,0.0-3.0-0.22,static,"6,3,1,2",m,36,11/3/82,English,United States of America,C145658,,,,,,
null,sound/6star.wav,,audio-keyboard-response,132,250012,0.0-3.0-1.22,static,"6,3,1,2",m,36,11/3/82,English,United States of America,C145658,,,null,6,363,
372,,0,html-button-response,133,250386,0.0-3.0-0.23,static,"6,3,1,2",m,36,11/3/82,English,United States of America,C145658,,,,,,
null,sound/6star.wav,,audio-keyboard-response,134,251887,0.0-3.0-1.23,static,"6,3,1,2",m,36,11/3/82,English,United States of America,C145658,,,null,6,369,
169,,0,html-button-response,135,252057,0.0-3.0-0.24,static,"6,3,1,2",m,36,11/3/82,English,United States of America,C145658,,,,,,
null,sound/6star.wav,,audio-keyboard-response,136,253558,0.0-3.0-1.24,static,"6,3,1,2",m,36,11/3/82,English,United States of America,C145658,,,null,6,375,
130,,0,html-button-response,137,253690,0.0-3.0-0.25,static,"6,3,1,2",m,36,11/3/82,English,United States of America,C145658,,,,,,
null,sound/6star.wav,,audio-keyboard-response,138,255194,0.0-3.0-1.25,static,"6,3,1,2",m,36,11/3/82,English,United States of America,C145658,,,null,6,381,
125,,0,html-button-response,139,255321,0.0-3.0-0.26,static,"6,3,1,2",m,36,11/3/82,English,United States of America,C145658,,,,,,
null,sound/6star.wav,,audio-keyboard-response,140,256823,0.0-3.0-1.26,static,"6,3,1,2",m,36,11/3/82,English,United States of America,C145658,,,null,6,387,
309,,0,html-button-response,141,257133,0.0-3.0-0.27,static,"6,3,1,2",m,36,11/3/82,English,United States of America,C145658,,,,,,
null,sound/6star.wav,,audio-keyboard-response,142,258633,0.0-3.0-1.27,static,"6,3,1,2",m,36,11/3/82,English,United States of America,C145658,,,null,6,393,
200,,0,html-button-response,143,258835,0.0-3.0-0.28,static,"6,3,1,2",m,36,11/3/82,English,United States of America,C145658,,,,,,
null,sound/6star.wav,,audio-keyboard-response,144,260335,0.0-3.0-1.28,static,"6,3,1,2",m,36,11/3/82,English,United States of America,C145658,,,null,6,399,
203,,0,html-button-response,145,260539,0.0-3.0-0.29,static,"6,3,1,2",m,36,11/3/82,English,United States of America,C145658,,,,,,
null,sound/6star.wav,,audio-keyboard-response,146,262040,0.0-3.0-1.29,static,"6,3,1,2",m,36,11/3/82,English,United States of America,C145658,,,null,6,405,
324,,0,html-button-response,147,262365,0.0-3.0-0.30,static,"6,3,1,2",m,36,11/3/82,English,United States of America,C145658,,,,,,
null,sound/6star.wav,,audio-keyboard-response,148,263865,0.0-3.0-1.30,static,"6,3,1,2",m,36,11/3/82,English,United States of America,C145658,,,null,6,411,
233,,0,html-button-response,149,264100,0.0-3.0-0.31,static,"6,3,1,2",m,36,11/3/82,English,United States of America,C145658,,,,,,
null,sound/6star.wav,,audio-keyboard-response,150,265600,0.0-3.0-1.31,static,"6,3,1,2",m,36,11/3/82,English,United States of America,C145658,,,null,6,417,
145,,0,html-button-response,151,265747,0.0-3.0-0.32,static,"6,3,1,2",m,36,11/3/82,English,United States of America,C145658,,,,,,
null,sound/6star.wav,,audio-keyboard-response,152,267247,0.0-3.0-1.32,static,"6,3,1,2",m,36,11/3/82,English,United States of America,C145658,,,null,6,423,
249,,0,html-button-response,153,267497,0.0-3.0-0.33,static,"6,3,1,2",m,36,11/3/82,English,United States of America,C145658,,,,,,
null,sound/6star.wav,,audio-keyboard-response,154,268997,0.0-3.0-1.33,static,"6,3,1,2",m,36,11/3/82,English,United States of America,C145658,,,null,6,429,
163,,0,html-button-response,155,269161,0.0-3.0-0.34,static,"6,3,1,2",m,36,11/3/82,English,United States of America,C145658,,,,,,
null,sound/6star.wav,,audio-keyboard-response,156,270662,0.0-3.0-1.34,static,"6,3,1,2",m,36,11/3/82,English,United States of America,C145658,,,null,6,435,
199,,0,html-button-response,157,270863,0.0-3.0-0.35,static,"6,3,1,2",m,36,11/3/82,English,United States of America,C145658,,,,,,
null,sound/6star.wav,,audio-keyboard-response,158,272363,0.0-3.0-1.35,static,"6,3,1,2",m,36,11/3/82,English,United States of America,C145658,,,null,6,441,
365,,0,html-button-response,159,272729,0.0-3.0-0.36,static,"6,3,1,2",m,36,11/3/82,English,United States of America,C145658,,,,,,
null,sound/6star.wav,,audio-keyboard-response,160,274231,0.0-3.0-1.36,static,"6,3,1,2",m,36,11/3/82,English,United States of America,C145658,,,null,6,447,
129,,0,html-button-response,161,274361,0.0-3.0-0.37,static,"6,3,1,2",m,36,11/3/82,English,United States of America,C145658,,,,,,
null,sound/6star.wav,,audio-keyboard-response,162,275863,0.0-3.0-1.37,static,"6,3,1,2",m,36,11/3/82,English,United States of America,C145658,,,null,6,453,
139,,0,html-button-response,163,276004,0.0-3.0-0.38,static,"6,3,1,2",m,36,11/3/82,English,United States of America,C145658,,,,,,
null,sound/6star.wav,,audio-keyboard-response,164,277505,0.0-3.0-1.38,static,"6,3,1,2",m,36,11/3/82,English,United States of America,C145658,,,null,6,459,
245,,0,html-button-response,165,277751,0.0-3.0-0.39,static,"6,3,1,2",m,36,11/3/82,English,United States of America,C145658,,,,,,
null,sound/6star.wav,,audio-keyboard-response,166,279252,0.0-3.0-1.39,static,"6,3,1,2",m,36,11/3/82,English,United States of America,C145658,,,null,6,465,
6171,sound/celebration.wav,0,audio-button-response,167,285426,0.0-4.0,static,"6,3,1,2",m,36,11/3/82,English,United States of America,C145658,,,,,,
6574,"Which, if any, of these monsters ever gave you <b>1 star</b>?</p>",2,html-button-response,168,292001,0.0-5.0-0.0,static,"6,3,1,2",m,36,11/3/82,English,United States of America,C145658,,,,,,correct
3731,"Which, if any, of these monsters ever gave you <b>2 stars</b>?</p>",3,html-button-response,169,296535,0.0-6.0-0.0,static,"6,3,1,2",m,36,11/3/82,English,United States of America,C145658,,,,,,correct
1234,"Which, if any, of these monsters ever gave you <b>3 stars</b>?</p>",1,html-button-response,170,298571,0.0-7.0-0.0,static,"6,3,1,2",m,36,11/3/82,English,United States of America,C145658,,,,,,correct
3172,"Which, if any, of these monsters ever gave you <b>6 stars</b>?</p>",0,html-button-response,171,302745,0.0-8.0-0.0,static,"6,3,1,2",m,36,11/3/82,English,United States of America,C145658,,,,,,correct
3032,"Which, if any, of these monsters ever gave you <b>8 stars</b>?</p>",4,html-button-response,172,306580,0.0-9.0-0.0,static,"6,3,1,2",m,36,11/3/82,English,United States of America,C145658,,,,,,correct
4266,Which monster did you like the most?</p>,0,html-button-response,173,311647,0.0-10.0-0.0,static,"6,3,1,2",m,36,11/3/82,English,United States of America,C145658,,,,,,
8258,,,survey-text,174,320705,0.0-11.0,static,"6,3,1,2",m,36,11/3/82,English,United States of America,C145658,,"\{""Q0"":""most stars""\}",,,,
rt,stimulus,button_pressed,trial_type,trial_index,time_elapsed,internal_node_id,condition,pointvals_firsthalf,gender,age,dob,language,country,turkcode,animation_sequence,responses,key_press,earnedThis,earnedCumulative,posttest
69064,"<p>Hi! Welcome to the experiment. This study takes the form of a simple decision making task.<br> It is designed to help us learn how children make decisions, so it will look like a kid's game.<br> However, in order to understand how kids make choices, we need to compare what they do to adults<br> doing the same task. That's you! Because of this, we ask you to take the task seriously and do your<br>best, even if the task seems like a strange thing for an adult to do.</p>",0,html-button-response,0,69066,0.0-0.0-0.0-0.0,static,"1,3,2,6",MALE,42,03/16/1977,ENGLISH,United States of America,C795114,,,,,,
,,,animation,1,81068,0.0-0.0-1.0,static,"1,3,2,6",MALE,42,03/16/1977,ENGLISH,United States of America,C795114,"[\{""stimulus"":""img/screen1a.png"",""time"":3002\},\{""stimulus"":""img/screen1b.png"",""time"":6002\},\{""stimulus"":""img/screen1c.png"",""time"":9001\}]",[],,,,
6071,<img src='img/screen1d.png'></img>,0,html-button-response,2,87140,0.0-0.0-2.0,static,"1,3,2,6",MALE,42,03/16/1977,ENGLISH,United States of America,C795114,,,,,,
,,,animation,3,108742,0.0-0.0-3.0,static,"1,3,2,6",MALE,42,03/16/1977,ENGLISH,United States of America,C795114,"[\{""stimulus"":""img/screen2.jpg"",""time"":801\},\{""stimulus"":""img/screen2.jpg"",""time"":1600\},\{""stimulus"":""img/screen2.jpg"",""time"":2400\},\{""stimulus"":""img/screen2.jpg"",""time"":3200\},\{""stimulus"":""img/screen2.jpg"",""time"":4001\},\{""stimulus"":""img/screen3a.jpg"",""time"":4801\},\{""stimulus"":""img/screen3b.jpg"",""time"":5600\},\{""stimulus"":""img/screen3c.jpg"",""time"":6401\},\{""stimulus"":""img/screen3d.jpg"",""time"":7202\},\{""stimulus"":""img/screen4a.jpg"",""time"":8002\},\{""stimulus"":""img/screen4a.jpg"",""time"":8800\},\{""stimulus"":""img/screen4b.jpg"",""time"":9600\},\{""stimulus"":""img/screen4c.jpg"",""time"":10401\},\{""stimulus"":""img/screen4d.jpg"",""time"":11201\},\{""stimulus"":""img/screen4d.jpg"",""time"":12001\},\{""stimulus"":""img/screen5a.jpg"",""time"":12800\},\{""stimulus"":""img/screen5b1.jpg"",""time"":14543\},\{""stimulus"":""img/screen5b2.jpg"",""time"":15200\},\{""stimulus"":""img/screen5b3.jpg"",""time"":16000\},\{""stimulus"":""img/screen5b4.jpg"",""time"":16802\},\{""stimulus"":""img/screen5b5.jpg"",""time"":17603\},\{""stimulus"":""img/screen5b6.jpg"",""time"":18401\},\{""stimulus"":""img/screen5c.jpg"",""time"":19200\},\{""stimulus"":""img/screen5d.jpg"",""time"":20001\},\{""stimulus"":""img/screen5d.jpg"",""time"":20802\}]",[],,,,
5611,<img src='img/screen5e.jpg'></img>,0,html-button-response,4,114353,0.0-0.0-4.0,static,"1,3,2,6",MALE,42,03/16/1977,ENGLISH,United States of America,C795114,,,,,,
14061,,,survey-multi-choice,5,128417,0.0-0.0-5.0,static,"1,3,2,6",MALE,42,03/16/1977,ENGLISH,United States of America,C795114,,"\{""Q0"":"" You click on the monsters"",""Q1"":"" Because the main study will have children participating""\}",,,,
1107,Well done!,0,html-button-response,6,129529,0.0-1.0,static,"1,3,2,6",MALE,42,03/16/1977,ENGLISH,United States of America,C795114,,,,,,
1837,,3,html-button-response,7,131368,0.0-2.0-0.0,static,"1,3,2,6",MALE,42,03/16/1977,ENGLISH,United States of America,C795114,,,,,,
null,sound/6star.wav,,audio-keyboard-response,8,132870,0.0-2.0-1.0,static,"1,3,2,6",MALE,42,03/16/1977,ENGLISH,United States of America,C795114,,,null,6,6,
1733,,0,html-button-response,9,134604,0.0-2.0-0.1,static,"1,3,2,6",MALE,42,03/16/1977,ENGLISH,United States of America,C795114,,,,,,
null,sound/1star.wav,,audio-keyboard-response,10,136107,0.0-2.0-1.1,static,"1,3,2,6",MALE,42,03/16/1977,ENGLISH,United States of America,C795114,,,null,1,7,
1414,,2,html-button-response,11,137521,0.0-2.0-0.2,static,"1,3,2,6",MALE,42,03/16/1977,ENGLISH,United States of America,C795114,,,,,,
null,sound/2star.wav,,audio-keyboard-response,12,139023,0.0-2.0-1.2,static,"1,3,2,6",MALE,42,03/16/1977,ENGLISH,United States of America,C795114,,,null,2,9,
603,,3,html-button-response,13,139628,0.0-2.0-0.3,static,"1,3,2,6",MALE,42,03/16/1977,ENGLISH,United States of America,C795114,,,,,,
null,sound/6star.wav,,audio-keyboard-response,14,141138,0.0-2.0-1.3,static,"1,3,2,6",MALE,42,03/16/1977,ENGLISH,United States of America,C795114,,,null,6,15,
808,,1,html-button-response,15,141948,0.0-2.0-0.4,static,"1,3,2,6",MALE,42,03/16/1977,ENGLISH,United States of America,C795114,,,,,,
null,sound/3star.wav,,audio-keyboard-response,16,143450,0.0-2.0-1.4,static,"1,3,2,6",MALE,42,03/16/1977,ENGLISH,United States of America,C795114,,,null,3,18,
2908,,3,html-button-response,17,146359,0.0-2.0-0.5,static,"1,3,2,6",MALE,42,03/16/1977,ENGLISH,United States of America,C795114,,,,,,
null,sound/6star.wav,,audio-keyboard-response,18,147861,0.0-2.0-1.5,static,"1,3,2,6",MALE,42,03/16/1977,ENGLISH,United States of America,C795114,,,null,6,24,
819,,3,html-button-response,19,148681,0.0-2.0-0.6,static,"1,3,2,6",MALE,42,03/16/1977,ENGLISH,United States of America,C795114,,,,,,
null,sound/6star.wav,,audio-keyboard-response,20,150183,0.0-2.0-1.6,static,"1,3,2,6",MALE,42,03/16/1977,ENGLISH,United States of America,C795114,,,null,6,30,
669,,3,html-button-response,21,150853,0.0-2.0-0.7,static,"1,3,2,6",MALE,42,03/16/1977,ENGLISH,United States of America,C795114,,,,,,
null,sound/6star.wav,,audio-keyboard-response,22,152356,0.0-2.0-1.7,static,"1,3,2,6",MALE,42,03/16/1977,ENGLISH,United States of America,C795114,,,null,6,36,
651,,2,html-button-response,23,153007,0.0-2.0-0.8,static,"1,3,2,6",MALE,42,03/16/1977,ENGLISH,United States of America,C795114,,,,,,
null,sound/2star.wav,,audio-keyboard-response,24,154508,0.0-2.0-1.8,static,"1,3,2,6",MALE,42,03/16/1977,ENGLISH,United States of America,C795114,,,null,2,38,
424,,1,html-button-response,25,154933,0.0-2.0-0.9,static,"1,3,2,6",MALE,42,03/16/1977,ENGLISH,United States of America,C795114,,,,,,
null,sound/3star.wav,,audio-keyboard-response,26,156435,0.0-2.0-1.9,static,"1,3,2,6",MALE,42,03/16/1977,ENGLISH,United States of America,C795114,,,null,3,41,
422,,0,html-button-response,27,156857,0.0-2.0-0.10,static,"1,3,2,6",MALE,42,03/16/1977,ENGLISH,United States of America,C795114,,,,,,
null,sound/1star.wav,,audio-keyboard-response,28,158360,0.0-2.0-1.10,static,"1,3,2,6",MALE,42,03/16/1977,ENGLISH,United States of America,C795114,,,null,1,42,
412,,3,html-button-response,29,158774,0.0-2.0-0.11,static,"1,3,2,6",MALE,42,03/16/1977,ENGLISH,United States of America,C795114,,,,,,
null,sound/6star.wav,,audio-keyboard-response,30,160277,0.0-2.0-1.11,static,"1,3,2,6",MALE,42,03/16/1977,ENGLISH,United States of America,C795114,,,null,6,48,
445,,3,html-button-response,31,160723,0.0-2.0-0.12,static,"1,3,2,6",MALE,42,03/16/1977,ENGLISH,United States of America,C795114,,,,,,
null,sound/6star.wav,,audio-keyboard-response,32,162224,0.0-2.0-1.12,static,"1,3,2,6",MALE,42,03/16/1977,ENGLISH,United States of America,C795114,,,null,6,54,
620,,2,html-button-response,33,162845,0.0-2.0-0.13,static,"1,3,2,6",MALE,42,03/16/1977,ENGLISH,United States of America,C795114,,,,,,
null,sound/2star.wav,,audio-keyboard-response,34,164346,0.0-2.0-1.13,static,"1,3,2,6",MALE,42,03/16/1977,ENGLISH,United States of America,C795114,,,null,2,56,
842,,3,html-button-response,35,165189,0.0-2.0-0.14,static,"1,3,2,6",MALE,42,03/16/1977,ENGLISH,United States of America,C795114,,,,,,
null,sound/6star.wav,,audio-keyboard-response,36,166692,0.0-2.0-1.14,static,"1,3,2,6",MALE,42,03/16/1977,ENGLISH,United States of America,C795114,,,null,6,62,
714,,3,html-button-response,37,167408,0.0-2.0-0.15,static,"1,3,2,6",MALE,42,03/16/1977,ENGLISH,United States of America,C795114,,,,,,
null,sound/6star.wav,,audio-keyboard-response,38,168909,0.0-2.0-1.15,static,"1,3,2,6",MALE,42,03/16/1977,ENGLISH,United States of America,C795114,,,null,6,68,
459,,3,html-button-response,39,169370,0.0-2.0-0.16,static,"1,3,2,6",MALE,42,03/16/1977,ENGLISH,United States of America,C795114,,,,,,
null,sound/6star.wav,,audio-keyboard-response,40,170877,0.0-2.0-1.16,static,"1,3,2,6",MALE,42,03/16/1977,ENGLISH,United States of America,C795114,,,null,6,74,
469,,3,html-button-response,41,171347,0.0-2.0-0.17,static,"1,3,2,6",MALE,42,03/16/1977,ENGLISH,United States of America,C795114,,,,,,
null,sound/6star.wav,,audio-keyboard-response,42,172850,0.0-2.0-1.17,static,"1,3,2,6",MALE,42,03/16/1977,ENGLISH,United States of America,C795114,,,null,6,80,
754,,0,html-button-response,43,173605,0.0-2.0-0.18,static,"1,3,2,6",MALE,42,03/16/1977,ENGLISH,United States of America,C795114,,,,,,
null,sound/1star.wav,,audio-keyboard-response,44,175109,0.0-2.0-1.18,static,"1,3,2,6",MALE,42,03/16/1977,ENGLISH,United States of America,C795114,,,null,1,81,
476,,3,html-button-response,45,175585,0.0-2.0-0.19,static,"1,3,2,6",MALE,42,03/16/1977,ENGLISH,United States of America,C795114,,,,,,
null,sound/6star.wav,,audio-keyboard-response,46,177087,0.0-2.0-1.19,static,"1,3,2,6",MALE,42,03/16/1977,ENGLISH,United States of America,C795114,,,null,6,87,
453,,3,html-button-response,47,177541,0.0-2.0-0.20,static,"1,3,2,6",MALE,42,03/16/1977,ENGLISH,United States of America,C795114,,,,,,
null,sound/6star.wav,,audio-keyboard-response,48,179043,0.0-2.0-1.20,static,"1,3,2,6",MALE,42,03/16/1977,ENGLISH,United States of America,C795114,,,null,6,93,
428,,3,html-button-response,49,179471,0.0-2.0-0.21,static,"1,3,2,6",MALE,42,03/16/1977,ENGLISH,United States of America,C795114,,,,,,
null,sound/6star.wav,,audio-keyboard-response,50,180974,0.0-2.0-1.21,static,"1,3,2,6",MALE,42,03/16/1977,ENGLISH,United States of America,C795114,,,null,6,99,
432,,3,html-button-response,51,181408,0.0-2.0-0.22,static,"1,3,2,6",MALE,42,03/16/1977,ENGLISH,United States of America,C795114,,,,,,
null,sound/6star.wav,,audio-keyboard-response,52,182910,0.0-2.0-1.22,static,"1,3,2,6",MALE,42,03/16/1977,ENGLISH,United States of America,C795114,,,null,6,105,
381,,3,html-button-response,53,183291,0.0-2.0-0.23,static,"1,3,2,6",MALE,42,03/16/1977,ENGLISH,United States of America,C795114,,,,,,
null,sound/6star.wav,,audio-keyboard-response,54,184794,0.0-2.0-1.23,static,"1,3,2,6",MALE,42,03/16/1977,ENGLISH,United States of America,C795114,,,null,6,111,
336,,3,html-button-response,55,185131,0.0-2.0-0.24,static,"1,3,2,6",MALE,42,03/16/1977,ENGLISH,United States of America,C795114,,,,,,
null,sound/6star.wav,,audio-keyboard-response,56,186633,0.0-2.0-1.24,static,"1,3,2,6",MALE,42,03/16/1977,ENGLISH,United States of America,C795114,,,null,6,117,
360,,3,html-button-response,57,186993,0.0-2.0-0.25,static,"1,3,2,6",MALE,42,03/16/1977,ENGLISH,United States of America,C795114,,,,,,
null,sound/6star.wav,,audio-keyboard-response,58,188495,0.0-2.0-1.25,static,"1,3,2,6",MALE,42,03/16/1977,ENGLISH,United States of America,C795114,,,null,6,123,
363,,3,html-button-response,59,188859,0.0-2.0-0.26,static,"1,3,2,6",MALE,42,03/16/1977,ENGLISH,United States of America,C795114,,,,,,
null,sound/6star.wav,,audio-keyboard-response,60,190362,0.0-2.0-1.26,static,"1,3,2,6",MALE,42,03/16/1977,ENGLISH,United States of America,C795114,,,null,6,129,
196,,3,html-button-response,61,190559,0.0-2.0-0.27,static,"1,3,2,6",MALE,42,03/16/1977,ENGLISH,United States of America,C795114,,,,,,
null,sound/6star.wav,,audio-keyboard-response,62,192061,0.0-2.0-1.27,static,"1,3,2,6",MALE,42,03/16/1977,ENGLISH,United States of America,C795114,,,null,6,135,
325,,3,html-button-response,63,192387,0.0-2.0-0.28,static,"1,3,2,6",MALE,42,03/16/1977,ENGLISH,United States of America,C795114,,,,,,
null,sound/6star.wav,,audio-keyboard-response,64,193890,0.0-2.0-1.28,static,"1,3,2,6",MALE,42,03/16/1977,ENGLISH,United States of America,C795114,,,null,6,141,
330,,3,html-button-response,65,194223,0.0-2.0-0.29,static,"1,3,2,6",MALE,42,03/16/1977,ENGLISH,United States of America,C795114,,,,,,
null,sound/6star.wav,,audio-keyboard-response,66,195724,0.0-2.0-1.29,static,"1,3,2,6",MALE,42,03/16/1977,ENGLISH,United States of America,C795114,,,null,6,147,
487,,3,html-button-response,67,196213,0.0-2.0-0.30,static,"1,3,2,6",MALE,42,03/16/1977,ENGLISH,United States of America,C795114,,,,,,
null,sound/6star.wav,,audio-keyboard-response,68,197718,0.0-2.0-1.30,static,"1,3,2,6",MALE,42,03/16/1977,ENGLISH,United States of America,C795114,,,null,6,153,
516,,3,html-button-response,69,198247,0.0-2.0-0.31,static,"1,3,2,6",MALE,42,03/16/1977,ENGLISH,United States of America,C795114,,,,,,
null,sound/6star.wav,,audio-keyboard-response,70,199752,0.0-2.0-1.31,static,"1,3,2,6",MALE,42,03/16/1977,ENGLISH,United States of America,C795114,,,null,6,159,
573,,3,html-button-response,71,200327,0.0-2.0-0.32,static,"1,3,2,6",MALE,42,03/16/1977,ENGLISH,United States of America,C795114,,,,,,
null,sound/6star.wav,,audio-keyboard-response,72,201828,0.0-2.0-1.32,static,"1,3,2,6",MALE,42,03/16/1977,ENGLISH,United States of America,C795114,,,null,6,165,
639,,3,html-button-response,73,202469,0.0-2.0-0.33,static,"1,3,2,6",MALE,42,03/16/1977,ENGLISH,United States of America,C795114,,,,,,
null,sound/6star.wav,,audio-keyboard-response,74,203970,0.0-2.0-1.33,static,"1,3,2,6",MALE,42,03/16/1977,ENGLISH,United States of America,C795114,,,null,6,171,
608,,3,html-button-response,75,204579,0.0-2.0-0.34,static,"1,3,2,6",MALE,42,03/16/1977,ENGLISH,United States of America,C795114,,,,,,
null,sound/6star.wav,,audio-keyboard-response,76,206081,0.0-2.0-1.34,static,"1,3,2,6",MALE,42,03/16/1977,ENGLISH,United States of America,C795114,,,null,6,177,
572,,3,html-button-response,77,206655,0.0-2.0-0.35,static,"1,3,2,6",MALE,42,03/16/1977,ENGLISH,United States of America,C795114,,,,,,
null,sound/6star.wav,,audio-keyboard-response,78,208162,0.0-2.0-1.35,static,"1,3,2,6",MALE,42,03/16/1977,ENGLISH,United States of America,C795114,,,null,6,183,
721,,3,html-button-response,79,208885,0.0-2.0-0.36,static,"1,3,2,6",MALE,42,03/16/1977,ENGLISH,United States of America,C795114,,,,,,
null,sound/6star.wav,,audio-keyboard-response,80,210386,0.0-2.0-1.36,static,"1,3,2,6",MALE,42,03/16/1977,ENGLISH,United States of America,C795114,,,null,6,189,
729,,3,html-button-response,81,211117,0.0-2.0-0.37,static,"1,3,2,6",MALE,42,03/16/1977,ENGLISH,United States of America,C795114,,,,,,
null,sound/6star.wav,,audio-keyboard-response,82,212620,0.0-2.0-1.37,static,"1,3,2,6",MALE,42,03/16/1977,ENGLISH,United States of America,C795114,,,null,6,195,
660,,3,html-button-response,83,213281,0.0-2.0-0.38,static,"1,3,2,6",MALE,42,03/16/1977,ENGLISH,United States of America,C795114,,,,,,
null,sound/6star.wav,,audio-keyboard-response,84,214782,0.0-2.0-1.38,static,"1,3,2,6",MALE,42,03/16/1977,ENGLISH,United States of America,C795114,,,null,6,201,
410,,3,html-button-response,85,215193,0.0-2.0-0.39,static,"1,3,2,6",MALE,42,03/16/1977,ENGLISH,United States of America,C795114,,,,,,
null,sound/6star.wav,,audio-keyboard-response,86,216698,0.0-2.0-1.39,static,"1,3,2,6",MALE,42,03/16/1977,ENGLISH,United States of America,C795114,,,null,6,207,
639,,3,html-button-response,87,217339,0.0-3.0-0.0,static,"1,3,2,6",MALE,42,03/16/1977,ENGLISH,United States of America,C795114,,,,,,
null,sound/6star.wav,,audio-keyboard-response,88,218842,0.0-3.0-1.0,static,"1,3,2,6",MALE,42,03/16/1977,ENGLISH,United States of America,C795114,,,null,6,213,
443,,3,html-button-response,89,219287,0.0-3.0-0.1,static,"1,3,2,6",MALE,42,03/16/1977,ENGLISH,United States of America,C795114,,,,,,
null,sound/6star.wav,,audio-keyboard-response,90,220789,0.0-3.0-1.1,static,"1,3,2,6",MALE,42,03/16/1977,ENGLISH,United States of America,C795114,,,null,6,219,
480,,3,html-button-response,91,221271,0.0-3.0-0.2,static,"1,3,2,6",MALE,42,03/16/1977,ENGLISH,United States of America,C795114,,,,,,
null,sound/6star.wav,,audio-keyboard-response,92,222774,0.0-3.0-1.2,static,"1,3,2,6",MALE,42,03/16/1977,ENGLISH,United States of America,C795114,,,null,6,225,
416,,3,html-button-response,93,223191,0.0-3.0-0.3,static,"1,3,2,6",MALE,42,03/16/1977,ENGLISH,United States of America,C795114,,,,,,
null,sound/6star.wav,,audio-keyboard-response,94,224692,0.0-3.0-1.3,static,"1,3,2,6",MALE,42,03/16/1977,ENGLISH,United States of America,C795114,,,null,6,231,
427,,3,html-button-response,95,225121,0.0-3.0-0.4,static,"1,3,2,6",MALE,42,03/16/1977,ENGLISH,United States of America,C795114,,,,,,
null,sound/6star.wav,,audio-keyboard-response,96,226623,0.0-3.0-1.4,static,"1,3,2,6",MALE,42,03/16/1977,ENGLISH,United States of America,C795114,,,null,6,237,
4216,,3,html-button-response,97,230841,0.0-3.0-0.5,static,"1,3,2,6",MALE,42,03/16/1977,ENGLISH,United States of America,C795114,,,,,,
null,sound/6star.wav,,audio-keyboard-response,98,232342,0.0-3.0-1.5,static,"1,3,2,6",MALE,42,03/16/1977,ENGLISH,United States of America,C795114,,,null,6,243,
601,,3,html-button-response,99,232945,0.0-3.0-0.6,static,"1,3,2,6",MALE,42,03/16/1977,ENGLISH,United States of America,C795114,,,,,,
null,sound/6star.wav,,audio-keyboard-response,100,234446,0.0-3.0-1.6,static,"1,3,2,6",MALE,42,03/16/1977,ENGLISH,United States of America,C795114,,,null,6,249,
485,,3,html-button-response,101,234933,0.0-3.0-0.7,static,"1,3,2,6",MALE,42,03/16/1977,ENGLISH,United States of America,C795114,,,,,,
null,sound/6star.wav,,audio-keyboard-response,102,236434,0.0-3.0-1.7,static,"1,3,2,6",MALE,42,03/16/1977,ENGLISH,United States of America,C795114,,,null,6,255,
1033,,3,html-button-response,103,237469,0.0-3.0-0.8,static,"1,3,2,6",MALE,42,03/16/1977,ENGLISH,United States of America,C795114,,,,,,
null,sound/6star.wav,,audio-keyboard-response,104,238972,0.0-3.0-1.8,static,"1,3,2,6",MALE,42,03/16/1977,ENGLISH,United States of America,C795114,,,null,6,261,
728,,3,html-button-response,105,239700,0.0-3.0-0.9,static,"1,3,2,6",MALE,42,03/16/1977,ENGLISH,United States of America,C795114,,,,,,
null,sound/6star.wav,,audio-keyboard-response,106,241203,0.0-3.0-1.9,static,"1,3,2,6",MALE,42,03/16/1977,ENGLISH,United States of America,C795114,,,null,6,267,
1732,,3,html-button-response,107,242937,0.0-3.0-0.10,static,"1,3,2,6",MALE,42,03/16/1977,ENGLISH,United States of America,C795114,,,,,,
null,sound/6star.wav,,audio-keyboard-response,108,244439,0.0-3.0-1.10,static,"1,3,2,6",MALE,42,03/16/1977,ENGLISH,United States of America,C795114,,,null,6,273,
1339,,3,html-button-response,109,245779,0.0-3.0-0.11,static,"1,3,2,6",MALE,42,03/16/1977,ENGLISH,United States of America,C795114,,,,,,
null,sound/6star.wav,,audio-keyboard-response,110,247281,0.0-3.0-1.11,static,"1,3,2,6",MALE,42,03/16/1977,ENGLISH,United States of America,C795114,,,null,6,279,
452,,3,html-button-response,111,247733,0.0-3.0-0.12,static,"1,3,2,6",MALE,42,03/16/1977,ENGLISH,United States of America,C795114,,,,,,
null,sound/6star.wav,,audio-keyboard-response,112,249234,0.0-3.0-1.12,static,"1,3,2,6",MALE,42,03/16/1977,ENGLISH,United States of America,C795114,,,null,6,285,
576,,3,html-button-response,113,249811,0.0-3.0-0.13,static,"1,3,2,6",MALE,42,03/16/1977,ENGLISH,United States of America,C795114,,,,,,
null,sound/6star.wav,,audio-keyboard-response,114,251312,0.0-3.0-1.13,static,"1,3,2,6",MALE,42,03/16/1977,ENGLISH,United States of America,C795114,,,null,6,291,
1507,,3,html-button-response,115,252820,0.0-3.0-0.14,static,"1,3,2,6",MALE,42,03/16/1977,ENGLISH,United States of America,C795114,,,,,,
null,sound/6star.wav,,audio-keyboard-response,116,254323,0.0-3.0-1.14,static,"1,3,2,6",MALE,42,03/16/1977,ENGLISH,United States of America,C795114,,,null,6,297,
556,,3,html-button-response,117,254880,0.0-3.0-0.15,static,"1,3,2,6",MALE,42,03/16/1977,ENGLISH,United States of America,C795114,,,,,,
null,sound/6star.wav,,audio-keyboard-response,118,256381,0.0-3.0-1.15,static,"1,3,2,6",MALE,42,03/16/1977,ENGLISH,United States of America,C795114,,,null,6,303,
436,,3,html-button-response,119,256818,0.0-3.0-0.16,static,"1,3,2,6",MALE,42,03/16/1977,ENGLISH,United States of America,C795114,,,,,,
null,sound/6star.wav,,audio-keyboard-response,120,258319,0.0-3.0-1.16,static,"1,3,2,6",MALE,42,03/16/1977,ENGLISH,United States of America,C795114,,,null,6,309,
540,,3,html-button-response,121,258860,0.0-3.0-0.17,static,"1,3,2,6",MALE,42,03/16/1977,ENGLISH,United States of America,C795114,,,,,,
null,sound/6star.wav,,audio-keyboard-response,122,260362,0.0-3.0-1.17,static,"1,3,2,6",MALE,42,03/16/1977,ENGLISH,United States of America,C795114,,,null,6,315,
643,,3,html-button-response,123,261006,0.0-3.0-0.18,static,"1,3,2,6",MALE,42,03/16/1977,ENGLISH,United States of America,C795114,,,,,,
null,sound/6star.wav,,audio-keyboard-response,124,262507,0.0-3.0-1.18,static,"1,3,2,6",MALE,42,03/16/1977,ENGLISH,United States of America,C795114,,,null,6,321,
389,,3,html-button-response,125,262898,0.0-3.0-0.19,static,"1,3,2,6",MALE,42,03/16/1977,ENGLISH,United States of America,C795114,,,,,,
null,sound/6star.wav,,audio-keyboard-response,126,264400,0.0-3.0-1.19,static,"1,3,2,6",MALE,42,03/16/1977,ENGLISH,United States of America,C795114,,,null,6,327,
441,,3,html-button-response,127,264842,0.0-3.0-0.20,static,"1,3,2,6",MALE,42,03/16/1977,ENGLISH,United States of America,C795114,,,,,,
null,sound/6star.wav,,audio-keyboard-response,128,266344,0.0-3.0-1.20,static,"1,3,2,6",MALE,42,03/16/1977,ENGLISH,United States of America,C795114,,,null,6,333,
478,,3,html-button-response,129,266823,0.0-3.0-0.21,static,"1,3,2,6",MALE,42,03/16/1977,ENGLISH,United States of America,C795114,,,,,,
null,sound/6star.wav,,audio-keyboard-response,130,268324,0.0-3.0-1.21,static,"1,3,2,6",MALE,42,03/16/1977,ENGLISH,United States of America,C795114,,,null,6,339,
520,,3,html-button-response,131,268844,0.0-3.0-0.22,static,"1,3,2,6",MALE,42,03/16/1977,ENGLISH,United States of America,C795114,,,,,,
null,sound/6star.wav,,audio-keyboard-response,132,270347,0.0-3.0-1.22,static,"1,3,2,6",MALE,42,03/16/1977,ENGLISH,United States of America,C795114,,,null,6,345,
449,,0,html-button-response,133,270797,0.0-3.0-0.23,static,"1,3,2,6",MALE,42,03/16/1977,ENGLISH,United States of America,C795114,,,,,,
null,sound/1star.wav,,audio-keyboard-response,134,272300,0.0-3.0-1.23,static,"1,3,2,6",MALE,42,03/16/1977,ENGLISH,United States of America,C795114,,,null,1,346,
456,,1,html-button-response,135,272756,0.0-3.0-0.24,static,"1,3,2,6",MALE,42,03/16/1977,ENGLISH,United States of America,C795114,,,,,,
null,sound/3star.wav,,audio-keyboard-response,136,274258,0.0-3.0-1.24,static,"1,3,2,6",MALE,42,03/16/1977,ENGLISH,United States of America,C795114,,,null,3,349,
400,,2,html-button-response,137,274658,0.0-3.0-0.25,static,"1,3,2,6",MALE,42,03/16/1977,ENGLISH,United States of America,C795114,,,,,,
null,sound/2star.wav,,audio-keyboard-response,138,276159,0.0-3.0-1.25,static,"1,3,2,6",MALE,42,03/16/1977,ENGLISH,United States of America,C795114,,,null,2,351,
522,,3,html-button-response,139,276682,0.0-3.0-0.26,static,"1,3,2,6",MALE,42,03/16/1977,ENGLISH,United States of America,C795114,,,,,,
null,sound/6star.wav,,audio-keyboard-response,140,278191,0.0-3.0-1.26,static,"1,3,2,6",MALE,42,03/16/1977,ENGLISH,United States of America,C795114,,,null,6,357,
514,,3,html-button-response,141,278706,0.0-3.0-0.27,static,"1,3,2,6",MALE,42,03/16/1977,ENGLISH,United States of America,C795114,,,,,,
null,sound/6star.wav,,audio-keyboard-response,142,280207,0.0-3.0-1.27,static,"1,3,2,6",MALE,42,03/16/1977,ENGLISH,United States of America,C795114,,,null,6,363,
602,,3,html-button-response,143,280810,0.0-3.0-0.28,static,"1,3,2,6",MALE,42,03/16/1977,ENGLISH,United States of America,C795114,,,,,,
null,sound/6star.wav,,audio-keyboard-response,144,282311,0.0-3.0-1.28,static,"1,3,2,6",MALE,42,03/16/1977,ENGLISH,United States of America,C795114,,,null,6,369,
568,,3,html-button-response,145,282880,0.0-3.0-0.29,static,"1,3,2,6",MALE,42,03/16/1977,ENGLISH,United States of America,C795114,,,,,,
null,sound/6star.wav,,audio-keyboard-response,146,284381,0.0-3.0-1.29,static,"1,3,2,6",MALE,42,03/16/1977,ENGLISH,United States of America,C795114,,,null,6,375,
588,,0,html-button-response,147,284970,0.0-3.0-0.30,static,"1,3,2,6",MALE,42,03/16/1977,ENGLISH,United States of America,C795114,,,,,,
null,sound/1star.wav,,audio-keyboard-response,148,286471,0.0-3.0-1.30,static,"1,3,2,6",MALE,42,03/16/1977,ENGLISH,United States of America,C795114,,,null,1,376,
458,,1,html-button-response,149,286930,0.0-3.0-0.31,static,"1,3,2,6",MALE,42,03/16/1977,ENGLISH,United States of America,C795114,,,,,,
null,sound/3star.wav,,audio-keyboard-response,150,288431,0.0-3.0-1.31,static,"1,3,2,6",MALE,42,03/16/1977,ENGLISH,United States of America,C795114,,,null,3,379,
491,,1,html-button-response,151,288924,0.0-3.0-0.32,static,"1,3,2,6",MALE,42,03/16/1977,ENGLISH,United States of America,C795114,,,,,,
null,sound/3star.wav,,audio-keyboard-response,152,290426,0.0-3.0-1.32,static,"1,3,2,6",MALE,42,03/16/1977,ENGLISH,United States of America,C795114,,,null,3,382,
534,,3,html-button-response,153,290962,0.0-3.0-0.33,static,"1,3,2,6",MALE,42,03/16/1977,ENGLISH,United States of America,C795114,,,,,,
null,sound/6star.wav,,audio-keyboard-response,154,292463,0.0-3.0-1.33,static,"1,3,2,6",MALE,42,03/16/1977,ENGLISH,United States of America,C795114,,,null,6,388,
687,,3,html-button-response,155,293152,0.0-3.0-0.34,static,"1,3,2,6",MALE,42,03/16/1977,ENGLISH,United States of America,C795114,,,,,,
null,sound/6star.wav,,audio-keyboard-response,156,294654,0.0-3.0-1.34,static,"1,3,2,6",MALE,42,03/16/1977,ENGLISH,United States of America,C795114,,,null,6,394,
505,,3,html-button-response,157,295160,0.0-3.0-0.35,static,"1,3,2,6",MALE,42,03/16/1977,ENGLISH,United States of America,C795114,,,,,,
null,sound/6star.wav,,audio-keyboard-response,158,296661,0.0-3.0-1.35,static,"1,3,2,6",MALE,42,03/16/1977,ENGLISH,United States of America,C795114,,,null,6,400,
639,,3,html-button-response,159,297302,0.0-3.0-0.36,static,"1,3,2,6",MALE,42,03/16/1977,ENGLISH,United States of America,C795114,,,,,,
null,sound/6star.wav,,audio-keyboard-response,160,298803,0.0-3.0-1.36,static,"1,3,2,6",MALE,42,03/16/1977,ENGLISH,United States of America,C795114,,,null,6,406,
671,,3,html-button-response,161,299476,0.0-3.0-0.37,static,"1,3,2,6",MALE,42,03/16/1977,ENGLISH,United States of America,C795114,,,,,,
null,sound/6star.wav,,audio-keyboard-response,162,300980,0.0-3.0-1.37,static,"1,3,2,6",MALE,42,03/16/1977,ENGLISH,United States of America,C795114,,,null,6,412,
555,,3,html-button-response,163,301536,0.0-3.0-0.38,static,"1,3,2,6",MALE,42,03/16/1977,ENGLISH,United States of America,C795114,,,,,,
null,sound/6star.wav,,audio-keyboard-response,164,303037,0.0-3.0-1.38,static,"1,3,2,6",MALE,42,03/16/1977,ENGLISH,United States of America,C795114,,,null,6,418,
573,,3,html-button-response,165,303612,0.0-3.0-0.39,static,"1,3,2,6",MALE,42,03/16/1977,ENGLISH,United States of America,C795114,,,,,,
null,sound/6star.wav,,audio-keyboard-response,166,305113,0.0-3.0-1.39,static,"1,3,2,6",MALE,42,03/16/1977,ENGLISH,United States of America,C795114,,,null,6,424,
4863,sound/celebration.wav,0,audio-button-response,167,309978,0.0-4.0,static,"1,3,2,6",MALE,42,03/16/1977,ENGLISH,United States of America,C795114,,,,,,
5865,"Which, if any, of these monsters ever gave you <b>1 star</b>?</p>",0,html-button-response,168,315844,0.0-5.0-0.0,static,"1,3,2,6",MALE,42,03/16/1977,ENGLISH,United States of America,C795114,,,,,,correct
2523,"Which, if any, of these monsters ever gave you <b>2 stars</b>?</p>",2,html-button-response,169,319170,0.0-6.0-0.0,static,"1,3,2,6",MALE,42,03/16/1977,ENGLISH,United States of America,C795114,,,,,,correct
1063,"Which, if any, of these monsters ever gave you <b>3 stars</b>?</p>",1,html-button-response,170,321036,0.0-7.0-0.0,static,"1,3,2,6",MALE,42,03/16/1977,ENGLISH,United States of America,C795114,,,,,,correct
1123,"Which, if any, of these monsters ever gave you <b>6 stars</b>?</p>",3,html-button-response,171,323162,0.0-8.0-0.0,static,"1,3,2,6",MALE,42,03/16/1977,ENGLISH,United States of America,C795114,,,,,,correct
2743,"Which, if any, of these monsters ever gave you <b>8 stars</b>?</p>",4,html-button-response,172,326706,0.0-9.0-0.0,static,"1,3,2,6",MALE,42,03/16/1977,ENGLISH,United States of America,C795114,,,,,,correct
1371,Which monster did you like the most?</p>,3,html-button-response,173,328880,0.0-10.0-0.0,static,"1,3,2,6",MALE,42,03/16/1977,ENGLISH,United States of America,C795114,,,,,,
9506,,,survey-text,174,339190,0.0-11.0,static,"1,3,2,6",MALE,42,03/16/1977,ENGLISH,United States of America,C795114,,"\{""Q0"":""HE GAVE THE MOST STARS""\}",,,,
rt,stimulus,button_pressed,trial_type,trial_index,time_elapsed,internal_node_id,condition,pointvals_firsthalf,gender,age,dob,language,country,turkcode,animation_sequence,responses,key_press,earnedThis,earnedCumulative,posttest
27113,"<p>Hi! Welcome to the experiment. This study takes the form of a simple decision making task.<br> It is designed to help us learn how children make decisions, so it will look like a kid's game.<br> However, in order to understand how kids make choices, we need to compare what they do to adults<br> doing the same task. That's you! Because of this, we ask you to take the task seriously and do your<br>best, even if the task seems like a strange thing for an adult to do.</p>",0,html-button-response,0,27118,0.0-0.0-0.0-0.0,static,"1,3,6,2",Male,34,01/25/1985,English,United States of America,C602845,,,,,,
,,,animation,1,39120,0.0-0.0-1.0,static,"1,3,6,2",Male,34,01/25/1985,English,United States of America,C602845,"[\{""stimulus"":""img/screen1a.png"",""time"":3001\},\{""stimulus"":""img/screen1b.png"",""time"":6001\},\{""stimulus"":""img/screen1c.png"",""time"":9001\}]",[],,,,
3252,<img src='img/screen1d.png'></img>,0,html-button-response,2,42373,0.0-0.0-2.0,static,"1,3,6,2",Male,34,01/25/1985,English,United States of America,C602845,,,,,,
,,,animation,3,63174,0.0-0.0-3.0,static,"1,3,6,2",Male,34,01/25/1985,English,United States of America,C602845,"[\{""stimulus"":""img/screen2.jpg"",""time"":800\},\{""stimulus"":""img/screen2.jpg"",""time"":1601\},\{""stimulus"":""img/screen2.jpg"",""time"":2401\},\{""stimulus"":""img/screen2.jpg"",""time"":3200\},\{""stimulus"":""img/screen2.jpg"",""time"":4001\},\{""stimulus"":""img/screen3a.jpg"",""time"":4801\},\{""stimulus"":""img/screen3b.jpg"",""time"":5601\},\{""stimulus"":""img/screen3c.jpg"",""time"":6399\},\{""stimulus"":""img/screen3d.jpg"",""time"":7201\},\{""stimulus"":""img/screen4a.jpg"",""time"":8001\},\{""stimulus"":""img/screen4a.jpg"",""time"":8800\},\{""stimulus"":""img/screen4b.jpg"",""time"":9600\},\{""stimulus"":""img/screen4c.jpg"",""time"":10400\},\{""stimulus"":""img/screen4d.jpg"",""time"":11201\},\{""stimulus"":""img/screen4d.jpg"",""time"":12001\},\{""stimulus"":""img/screen5a.jpg"",""time"":12801\},\{""stimulus"":""img/screen5b1.jpg"",""time"":13600\},\{""stimulus"":""img/screen5b2.jpg"",""time"":14401\},\{""stimulus"":""img/screen5b3.jpg"",""time"":15201\},\{""stimulus"":""img/screen5b4.jpg"",""time"":16001\},\{""stimulus"":""img/screen5b5.jpg"",""time"":16800\},\{""stimulus"":""img/screen5b6.jpg"",""time"":17601\},\{""stimulus"":""img/screen5c.jpg"",""time"":18401\},\{""stimulus"":""img/screen5d.jpg"",""time"":19200\},\{""stimulus"":""img/screen5d.jpg"",""time"":20001\}]",[],,,,
3766,<img src='img/screen5e.jpg'></img>,0,html-button-response,4,66941,0.0-0.0-4.0,static,"1,3,6,2",Male,34,01/25/1985,English,United States of America,C602845,,,,,,
23195,,,survey-multi-choice,5,90143,0.0-0.0-5.0,static,"1,3,6,2",Male,34,01/25/1985,English,United States of America,C602845,,"\{""Q0"":"" You click on the monsters"",""Q1"":"" Because the main study will have children participating""\}",,,,
1505,Well done!,0,html-button-response,6,91650,0.0-1.0,static,"1,3,6,2",Male,34,01/25/1985,English,United States of America,C602845,,,,,,
1564,,3,html-button-response,7,93216,0.0-2.0-0.0,static,"1,3,6,2",Male,34,01/25/1985,English,United States of America,C602845,,,,,,
null,sound/2star.wav,,audio-keyboard-response,8,94720,0.0-2.0-1.0,static,"1,3,6,2",Male,34,01/25/1985,English,United States of America,C602845,,,null,2,2,
1063,,1,html-button-response,9,95786,0.0-2.0-0.1,static,"1,3,6,2",Male,34,01/25/1985,English,United States of America,C602845,,,,,,
null,sound/3star.wav,,audio-keyboard-response,10,97289,0.0-2.0-1.1,static,"1,3,6,2",Male,34,01/25/1985,English,United States of America,C602845,,,null,3,5,
784,,0,html-button-response,11,98075,0.0-2.0-0.2,static,"1,3,6,2",Male,34,01/25/1985,English,United States of America,C602845,,,,,,
null,sound/1star.wav,,audio-keyboard-response,12,99576,0.0-2.0-1.2,static,"1,3,6,2",Male,34,01/25/1985,English,United States of America,C602845,,,null,1,6,
271,,3,html-button-response,13,99849,0.0-2.0-0.3,static,"1,3,6,2",Male,34,01/25/1985,English,United States of America,C602845,,,,,,
null,sound/2star.wav,,audio-keyboard-response,14,101351,0.0-2.0-1.3,static,"1,3,6,2",Male,34,01/25/1985,English,United States of America,C602845,,,null,2,8,
801,,2,html-button-response,15,102154,0.0-2.0-0.4,static,"1,3,6,2",Male,34,01/25/1985,English,United States of America,C602845,,,,,,
null,sound/6star.wav,,audio-keyboard-response,16,103656,0.0-2.0-1.4,static,"1,3,6,2",Male,34,01/25/1985,English,United States of America,C602845,,,null,6,14,
799,,2,html-button-response,17,104457,0.0-2.0-0.5,static,"1,3,6,2",Male,34,01/25/1985,English,United States of America,C602845,,,,,,
null,sound/6star.wav,,audio-keyboard-response,18,105959,0.0-2.0-1.5,static,"1,3,6,2",Male,34,01/25/1985,English,United States of America,C602845,,,null,6,20,
447,,2,html-button-response,19,106408,0.0-2.0-0.6,static,"1,3,6,2",Male,34,01/25/1985,English,United States of America,C602845,,,,,,
null,sound/6star.wav,,audio-keyboard-response,20,107910,0.0-2.0-1.6,static,"1,3,6,2",Male,34,01/25/1985,English,United States of America,C602845,,,null,6,26,
375,,2,html-button-response,21,108287,0.0-2.0-0.7,static,"1,3,6,2",Male,34,01/25/1985,English,United States of America,C602845,,,,,,
null,sound/6star.wav,,audio-keyboard-response,22,109789,0.0-2.0-1.7,static,"1,3,6,2",Male,34,01/25/1985,English,United States of America,C602845,,,null,6,32,
367,,2,html-button-response,23,110158,0.0-2.0-0.8,static,"1,3,6,2",Male,34,01/25/1985,English,United States of America,C602845,,,,,,
null,sound/6star.wav,,audio-keyboard-response,24,111661,0.0-2.0-1.8,static,"1,3,6,2",Male,34,01/25/1985,English,United States of America,C602845,,,null,6,38,
341,,2,html-button-response,25,112004,0.0-2.0-0.9,static,"1,3,6,2",Male,34,01/25/1985,English,United States of America,C602845,,,,,,
null,sound/6star.wav,,audio-keyboard-response,26,113506,0.0-2.0-1.9,static,"1,3,6,2",Male,34,01/25/1985,English,United States of America,C602845,,,null,6,44,
256,,2,html-button-response,27,113764,0.0-2.0-0.10,static,"1,3,6,2",Male,34,01/25/1985,English,United States of America,C602845,,,,,,
null,sound/6star.wav,,audio-keyboard-response,28,115266,0.0-2.0-1.10,static,"1,3,6,2",Male,34,01/25/1985,English,United States of America,C602845,,,null,6,50,
344,,2,html-button-response,29,115612,0.0-2.0-0.11,static,"1,3,6,2",Male,34,01/25/1985,English,United States of America,C602845,,,,,,
null,sound/6star.wav,,audio-keyboard-response,30,117115,0.0-2.0-1.11,static,"1,3,6,2",Male,34,01/25/1985,English,United States of America,C602845,,,null,6,56,
348,,2,html-button-response,31,117465,0.0-2.0-0.12,static,"1,3,6,2",Male,34,01/25/1985,English,United States of America,C602845,,,,,,
null,sound/6star.wav,,audio-keyboard-response,32,118968,0.0-2.0-1.12,static,"1,3,6,2",Male,34,01/25/1985,English,United States of America,C602845,,,null,6,62,
389,,2,html-button-response,33,119359,0.0-2.0-0.13,static,"1,3,6,2",Male,34,01/25/1985,English,United States of America,C602845,,,,,,
null,sound/6star.wav,,audio-keyboard-response,34,120860,0.0-2.0-1.13,static,"1,3,6,2",Male,34,01/25/1985,English,United States of America,C602845,,,null,6,68,
408,,2,html-button-response,35,121270,0.0-2.0-0.14,static,"1,3,6,2",Male,34,01/25/1985,English,United States of America,C602845,,,,,,
null,sound/6star.wav,,audio-keyboard-response,36,122772,0.0-2.0-1.14,static,"1,3,6,2",Male,34,01/25/1985,English,United States of America,C602845,,,null,6,74,
456,,2,html-button-response,37,123229,0.0-2.0-0.15,static,"1,3,6,2",Male,34,01/25/1985,English,United States of America,C602845,,,,,,
null,sound/6star.wav,,audio-keyboard-response,38,124732,0.0-2.0-1.15,static,"1,3,6,2",Male,34,01/25/1985,English,United States of America,C602845,,,null,6,80,
703,,2,html-button-response,39,125437,0.0-2.0-0.16,static,"1,3,6,2",Male,34,01/25/1985,English,United States of America,C602845,,,,,,
null,sound/6star.wav,,audio-keyboard-response,40,126939,0.0-2.0-1.16,static,"1,3,6,2",Male,34,01/25/1985,English,United States of America,C602845,,,null,6,86,
673,,2,html-button-response,41,127613,0.0-2.0-0.17,static,"1,3,6,2",Male,34,01/25/1985,English,United States of America,C602845,,,,,,
null,sound/6star.wav,,audio-keyboard-response,42,129115,0.0-2.0-1.17,static,"1,3,6,2",Male,34,01/25/1985,English,United States of America,C602845,,,null,6,92,
448,,2,html-button-response,43,129564,0.0-2.0-0.18,static,"1,3,6,2",Male,34,01/25/1985,English,United States of America,C602845,,,,,,
null,sound/6star.wav,,audio-keyboard-response,44,131068,0.0-2.0-1.18,static,"1,3,6,2",Male,34,01/25/1985,English,United States of America,C602845,,,null,6,98,
510,,2,html-button-response,45,131580,0.0-2.0-0.19,static,"1,3,6,2",Male,34,01/25/1985,English,United States of America,C602845,,,,,,
null,sound/6star.wav,,audio-keyboard-response,46,133082,0.0-2.0-1.19,static,"1,3,6,2",Male,34,01/25/1985,English,United States of America,C602845,,,null,6,104,
391,,2,html-button-response,47,133474,0.0-2.0-0.20,static,"1,3,6,2",Male,34,01/25/1985,English,United States of America,C602845,,,,,,
null,sound/6star.wav,,audio-keyboard-response,48,134987,0.0-2.0-1.20,static,"1,3,6,2",Male,34,01/25/1985,English,United States of America,C602845,,,null,6,110,
333,,2,html-button-response,49,135323,0.0-2.0-0.21,static,"1,3,6,2",Male,34,01/25/1985,English,United States of America,C602845,,,,,,
null,sound/6star.wav,,audio-keyboard-response,50,136825,0.0-2.0-1.21,static,"1,3,6,2",Male,34,01/25/1985,English,United States of America,C602845,,,null,6,116,
368,,2,html-button-response,51,137194,0.0-2.0-0.22,static,"1,3,6,2",Male,34,01/25/1985,English,United States of America,C602845,,,,,,
null,sound/6star.wav,,audio-keyboard-response,52,138697,0.0-2.0-1.22,static,"1,3,6,2",Male,34,01/25/1985,English,United States of America,C602845,,,null,6,122,
335,,2,html-button-response,53,139033,0.0-2.0-0.23,static,"1,3,6,2",Male,34,01/25/1985,English,United States of America,C602845,,,,,,
null,sound/6star.wav,,audio-keyboard-response,54,140535,0.0-2.0-1.23,static,"1,3,6,2",Male,34,01/25/1985,English,United States of America,C602845,,,null,6,128,
368,,2,html-button-response,55,140905,0.0-2.0-0.24,static,"1,3,6,2",Male,34,01/25/1985,English,United States of America,C602845,,,,,,
null,sound/6star.wav,,audio-keyboard-response,56,142408,0.0-2.0-1.24,static,"1,3,6,2",Male,34,01/25/1985,English,United States of America,C602845,,,null,6,134,
389,,2,html-button-response,57,142799,0.0-2.0-0.25,static,"1,3,6,2",Male,34,01/25/1985,English,United States of America,C602845,,,,,,
null,sound/6star.wav,,audio-keyboard-response,58,144301,0.0-2.0-1.25,static,"1,3,6,2",Male,34,01/25/1985,English,United States of America,C602845,,,null,6,140,
382,,2,html-button-response,59,144686,0.0-2.0-0.26,static,"1,3,6,2",Male,34,01/25/1985,English,United States of America,C602845,,,,,,
null,sound/6star.wav,,audio-keyboard-response,60,146187,0.0-2.0-1.26,static,"1,3,6,2",Male,34,01/25/1985,English,United States of America,C602845,,,null,6,146,
385,,2,html-button-response,61,146574,0.0-2.0-0.27,static,"1,3,6,2",Male,34,01/25/1985,English,United States of America,C602845,,,,,,
null,sound/6star.wav,,audio-keyboard-response,62,148076,0.0-2.0-1.27,static,"1,3,6,2",Male,34,01/25/1985,English,United States of America,C602845,,,null,6,152,
318,,2,html-button-response,63,148396,0.0-2.0-0.28,static,"1,3,6,2",Male,34,01/25/1985,English,United States of America,C602845,,,,,,
null,sound/6star.wav,,audio-keyboard-response,64,149899,0.0-2.0-1.28,static,"1,3,6,2",Male,34,01/25/1985,English,United States of America,C602845,,,null,6,158,
383,,2,html-button-response,65,150284,0.0-2.0-0.29,static,"1,3,6,2",Male,34,01/25/1985,English,United States of America,C602845,,,,,,
null,sound/6star.wav,,audio-keyboard-response,66,151786,0.0-2.0-1.29,static,"1,3,6,2",Male,34,01/25/1985,English,United States of America,C602845,,,null,6,164,
327,,2,html-button-response,67,152115,0.0-2.0-0.30,static,"1,3,6,2",Male,34,01/25/1985,English,United States of America,C602845,,,,,,
null,sound/6star.wav,,audio-keyboard-response,68,153618,0.0-2.0-1.30,static,"1,3,6,2",Male,34,01/25/1985,English,United States of America,C602845,,,null,6,170,
198,,2,html-button-response,69,153818,0.0-2.0-0.31,static,"1,3,6,2",Male,34,01/25/1985,English,United States of America,C602845,,,,,,
null,sound/6star.wav,,audio-keyboard-response,70,155320,0.0-2.0-1.31,static,"1,3,6,2",Male,34,01/25/1985,English,United States of America,C602845,,,null,6,176,
383,,2,html-button-response,71,155705,0.0-2.0-0.32,static,"1,3,6,2",Male,34,01/25/1985,English,United States of America,C602845,,,,,,
null,sound/6star.wav,,audio-keyboard-response,72,157207,0.0-2.0-1.32,static,"1,3,6,2",Male,34,01/25/1985,English,United States of America,C602845,,,null,6,182,
198,,2,html-button-response,73,157407,0.0-2.0-0.33,static,"1,3,6,2",Male,34,01/25/1985,English,United States of America,C602845,,,,,,
null,sound/6star.wav,,audio-keyboard-response,74,158909,0.0-2.0-1.33,static,"1,3,6,2",Male,34,01/25/1985,English,United States of America,C602845,,,null,6,188,
562,,2,html-button-response,75,159473,0.0-2.0-0.34,static,"1,3,6,2",Male,34,01/25/1985,English,United States of America,C602845,,,,,,
null,sound/6star.wav,,audio-keyboard-response,76,160975,0.0-2.0-1.34,static,"1,3,6,2",Male,34,01/25/1985,English,United States of America,C602845,,,null,6,194,
406,,2,html-button-response,77,161383,0.0-2.0-0.35,static,"1,3,6,2",Male,34,01/25/1985,English,United States of America,C602845,,,,,,
null,sound/6star.wav,,audio-keyboard-response,78,162885,0.0-2.0-1.35,static,"1,3,6,2",Male,34,01/25/1985,English,United States of America,C602845,,,null,6,200,
381,,2,html-button-response,79,163270,0.0-2.0-0.36,static,"1,3,6,2",Male,34,01/25/1985,English,United States of America,C602845,,,,,,
null,sound/6star.wav,,audio-keyboard-response,80,164773,0.0-2.0-1.36,static,"1,3,6,2",Male,34,01/25/1985,English,United States of America,C602845,,,null,6,206,
236,,2,html-button-response,81,165012,0.0-2.0-0.37,static,"1,3,6,2",Male,34,01/25/1985,English,United States of America,C602845,,,,,,
null,sound/6star.wav,,audio-keyboard-response,82,166514,0.0-2.0-1.37,static,"1,3,6,2",Male,34,01/25/1985,English,United States of America,C602845,,,null,6,212,
392,,2,html-button-response,83,166907,0.0-2.0-0.38,static,"1,3,6,2",Male,34,01/25/1985,English,United States of America,C602845,,,,,,
null,sound/6star.wav,,audio-keyboard-response,84,168410,0.0-2.0-1.38,static,"1,3,6,2",Male,34,01/25/1985,English,United States of America,C602845,,,null,6,218,
392,,2,html-button-response,85,168803,0.0-2.0-0.39,static,"1,3,6,2",Male,34,01/25/1985,English,United States of America,C602845,,,,,,
null,sound/6star.wav,,audio-keyboard-response,86,170307,0.0-2.0-1.39,static,"1,3,6,2",Male,34,01/25/1985,English,United States of America,C602845,,,null,6,224,
391,,2,html-button-response,87,170699,0.0-3.0-0.0,static,"1,3,6,2",Male,34,01/25/1985,English,United States of America,C602845,,,,,,
null,sound/6star.wav,,audio-keyboard-response,88,172202,0.0-3.0-1.0,static,"1,3,6,2",Male,34,01/25/1985,English,United States of America,C602845,,,null,6,230,
455,,2,html-button-response,89,172658,0.0-3.0-0.1,static,"1,3,6,2",Male,34,01/25/1985,English,United States of America,C602845,,,,,,
null,sound/6star.wav,,audio-keyboard-response,90,174161,0.0-3.0-1.1,static,"1,3,6,2",Male,34,01/25/1985,English,United States of America,C602845,,,null,6,236,
390,,2,html-button-response,91,174552,0.0-3.0-0.2,static,"1,3,6,2",Male,34,01/25/1985,English,United States of America,C602845,,,,,,
