rt,stimulus,button_pressed,trial_type,trial_index,time_elapsed,internal_node_id,condition,pointvals_firsthalf,subjID,gender,age,dob,dot,language,turkID,animation_sequence,responses,key_press,earnedThis,earnedCumulative,posttest743808,,0,html-button-response,0,743814,0.0-0.0,dynamic,"2,3,6,1",I019,,8,,4/13/2019,,C631851,,,,,,,,,animation,1,755819,0.0-1.0,dynamic,"2,3,6,1",I019,,8,,4/13/2019,,C631851,"[\{""stimulus"":""img/screen1a.png"",""time"":3007\},\{""stimulus"":""img/screen1b.png"",""time"":6003\},\{""stimulus"":""img/screen1c.png"",""time"":9002\}]",[],,,,2461,<img src='img/screen1d.png'></img>,0,html-button-response,2,758286,0.0-2.0,dynamic,"2,3,6,1",I019,,8,,4/13/2019,,C631851,,,,,,,,,animation,3,779093,0.0-3.0,dynamic,"2,3,6,1",I019,,8,,4/13/2019,,C631851,"[\{""stimulus"":""img/screen2.jpg"",""time"":801\},\{""stimulus"":""img/screen2.jpg"",""time"":1603\},\{""stimulus"":""img/screen2.jpg"",""time"":2402\},\{""stimulus"":""img/screen2.jpg"",""time"":3202\},\{""stimulus"":""img/screen2.jpg"",""time"":4001\},\{""stimulus"":""img/screen3a.jpg"",""time"":4804\},\{""stimulus"":""img/screen3b.jpg"",""time"":5610\},\{""stimulus"":""img/screen3c.jpg"",""time"":6402\},\{""stimulus"":""img/screen3d.jpg"",""time"":7202\},\{""stimulus"":""img/screen4a.jpg"",""time"":8001\},\{""stimulus"":""img/screen4a.jpg"",""time"":8805\},\{""stimulus"":""img/screen4b.jpg"",""time"":9605\},\{""stimulus"":""img/screen4c.jpg"",""time"":10401\},\{""stimulus"":""img/screen4d.jpg"",""time"":11201\},\{""stimulus"":""img/screen4d.jpg"",""time"":12001\},\{""stimulus"":""img/screen5a.jpg"",""time"":12805\},\{""stimulus"":""img/screen5b1.jpg"",""time"":13607\},\{""stimulus"":""img/screen5b2.jpg"",""time"":14401\},\{""stimulus"":""img/screen5b3.jpg"",""time"":15202\},\{""stimulus"":""img/screen5b4.jpg"",""time"":16006\},\{""stimulus"":""img/screen5b5.jpg"",""time"":16804\},\{""stimulus"":""img/screen5b6.jpg"",""time"":17606\},\{""stimulus"":""img/screen5c.jpg"",""time"":18401\},\{""stimulus"":""img/screen5d.jpg"",""time"":19201\},\{""stimulus"":""img/screen5d.jpg"",""time"":20002\}]",[],,,,1291,<img src='img/screen5e.jpg'></img>,0,html-button-response,4,780389,0.0-4.0,dynamic,"2,3,6,1",I019,,8,,4/13/2019,,C631851,,,,,,12938,<p align='center'></p>,0,html-button-response,5,793333,0.0-5.0,dynamic,"2,3,6,1",I019,,8,,4/13/2019,,C631851,,,,,,7376,,2,html-button-response,6,800718,0.0-6.0-0.0,dynamic,"2,3,6,1",I019,,8,,4/13/2019,,C631851,,,,,,null,sound/6star.wav,,audio-keyboard-response,7,802239,0.0-6.0-1.0,dynamic,"2,3,6,1",I019,,8,,4/13/2019,,C631851,,,null,6,6,3766,,0,html-button-response,8,806015,0.0-6.0-0.1,dynamic,"2,3,6,1",I019,,8,,4/13/2019,,C631851,,,,,,null,sound/2star.wav,,audio-keyboard-response,9,807523,0.0-6.0-1.1,dynamic,"2,3,6,1",I019,,8,,4/13/2019,,C631851,,,null,2,8,2191,,3,html-button-response,10,809724,0.0-6.0-0.2,dynamic,"2,3,6,1",I019,,8,,4/13/2019,,C631851,,,,,,null,sound/1star.wav,,audio-keyboard-response,11,811230,0.0-6.0-1.2,dynamic,"2,3,6,1",I019,,8,,4/13/2019,,C631851,,,null,1,9,2085,,1,html-button-response,12,813325,0.0-6.0-0.3,dynamic,"2,3,6,1",I019,,8,,4/13/2019,,C631851,,,,,,null,sound/3star.wav,,audio-keyboard-response,13,814827,0.0-6.0-1.3,dynamic,"2,3,6,1",I019,,8,,4/13/2019,,C631851,,,null,3,12,2572,,2,html-button-response,14,817406,0.0-6.0-0.4,dynamic,"2,3,6,1",I019,,8,,4/13/2019,,C631851,,,,,,null,sound/6star.wav,,audio-keyboard-response,15,818911,0.0-6.0-1.4,dynamic,"2,3,6,1",I019,,8,,4/13/2019,,C631851,,,null,6,18,2265,,1,html-button-response,16,821185,0.0-6.0-0.5,dynamic,"2,3,6,1",I019,,8,,4/13/2019,,C631851,,,,,,null,sound/3star.wav,,audio-keyboard-response,17,822689,0.0-6.0-1.5,dynamic,"2,3,6,1",I019,,8,,4/13/2019,,C631851,,,null,3,21,1423,,0,html-button-response,18,824118,0.0-6.0-0.6,dynamic,"2,3,6,1",I019,,8,,4/13/2019,,C631851,,,,,,null,sound/2star.wav,,audio-keyboard-response,19,825622,0.0-6.0-1.6,dynamic,"2,3,6,1",I019,,8,,4/13/2019,,C631851,,,null,2,23,1429,,3,html-button-response,20,827060,0.0-6.0-0.7,dynamic,"2,3,6,1",I019,,8,,4/13/2019,,C631851,,,,,,null,sound/1star.wav,,audio-keyboard-response,21,828566,0.0-6.0-1.7,dynamic,"2,3,6,1",I019,,8,,4/13/2019,,C631851,,,null,1,24,1443,,2,html-button-response,22,830019,0.0-6.0-0.8,dynamic,"2,3,6,1",I019,,8,,4/13/2019,,C631851,,,,,,null,sound/6star.wav,,audio-keyboard-response,23,831525,0.0-6.0-1.8,dynamic,"2,3,6,1",I019,,8,,4/13/2019,,C631851,,,null,6,30,1090,,3,html-button-response,24,832626,0.0-6.0-0.9,dynamic,"2,3,6,1",I019,,8,,4/13/2019,,C631851,,,,,,null,sound/1star.wav,,audio-keyboard-response,25,834129,0.0-6.0-1.9,dynamic,"2,3,6,1",I019,,8,,4/13/2019,,C631851,,,null,1,31,1216,,0,html-button-response,26,835353,0.0-6.0-0.10,dynamic,"2,3,6,1",I019,,8,,4/13/2019,,C631851,,,,,,null,sound/2star.wav,,audio-keyboard-response,27,836857,0.0-6.0-1.10,dynamic,"2,3,6,1",I019,,8,,4/13/2019,,C631851,,,null,2,33,1207,,1,html-button-response,28,838070,0.0-6.0-0.11,dynamic,"2,3,6,1",I019,,8,,4/13/2019,,C631851,,,,,,null,sound/3star.wav,,audio-keyboard-response,29,839576,0.0-6.0-1.11,dynamic,"2,3,6,1",I019,,8,,4/13/2019,,C631851,,,null,3,36,1695,,0,html-button-response,30,841281,0.0-6.0-0.12,dynamic,"2,3,6,1",I019,,8,,4/13/2019,,C631851,,,,,,null,sound/2star.wav,,audio-keyboard-response,31,842786,0.0-6.0-1.12,dynamic,"2,3,6,1",I019,,8,,4/13/2019,,C631851,,,null,2,38,1173,,3,html-button-response,32,843968,0.0-6.0-0.13,dynamic,"2,3,6,1",I019,,8,,4/13/2019,,C631851,,,,,,null,sound/1star.wav,,audio-keyboard-response,33,845473,0.0-6.0-1.13,dynamic,"2,3,6,1",I019,,8,,4/13/2019,,C631851,,,null,1,39,1239,,1,html-button-response,34,846720,0.0-6.0-0.14,dynamic,"2,3,6,1",I019,,8,,4/13/2019,,C631851,,,,,,null,sound/3star.wav,,audio-keyboard-response,35,848230,0.0-6.0-1.14,dynamic,"2,3,6,1",I019,,8,,4/13/2019,,C631851,,,null,3,42,1201,,2,html-button-response,36,849442,0.0-6.0-0.15,dynamic,"2,3,6,1",I019,,8,,4/13/2019,,C631851,,,,,,null,sound/6star.wav,,audio-keyboard-response,37,850945,0.0-6.0-1.15,dynamic,"2,3,6,1",I019,,8,,4/13/2019,,C631851,,,null,6,48,3289,,0,html-button-response,38,854237,0.0-6.0-0.16,dynamic,"2,3,6,1",I019,,8,,4/13/2019,,C631851,,,,,,null,sound/2star.wav,,audio-keyboard-response,39,855741,0.0-6.0-1.16,dynamic,"2,3,6,1",I019,,8,,4/13/2019,,C631851,,,null,2,50,2357,,3,html-button-response,40,858109,0.0-6.0-0.17,dynamic,"2,3,6,1",I019,,8,,4/13/2019,,C631851,,,,,,null,sound/1star.wav,,audio-keyboard-response,41,859614,0.0-6.0-1.17,dynamic,"2,3,6,1",I019,,8,,4/13/2019,,C631851,,,null,1,51,1348,,1,html-button-response,42,860969,0.0-6.0-0.18,dynamic,"2,3,6,1",I019,,8,,4/13/2019,,C631851,,,,,,null,sound/3star.wav,,audio-keyboard-response,43,862475,0.0-6.0-1.18,dynamic,"2,3,6,1",I019,,8,,4/13/2019,,C631851,,,null,3,54,1236,,2,html-button-response,44,863728,0.0-6.0-0.19,dynamic,"2,3,6,1",I019,,8,,4/13/2019,,C631851,,,,,,null,sound/6star.wav,,audio-keyboard-response,45,865233,0.0-6.0-1.19,dynamic,"2,3,6,1",I019,,8,,4/13/2019,,C631851,,,null,6,60,1296,,0,html-button-response,46,866536,0.0-6.0-0.20,dynamic,"2,3,6,1",I019,,8,,4/13/2019,,C631851,,,,,,null,sound/2star.wav,,audio-keyboard-response,47,868044,0.0-6.0-1.20,dynamic,"2,3,6,1",I019,,8,,4/13/2019,,C631851,,,null,2,62,1580,,1,html-button-response,48,869633,0.0-6.0-0.21,dynamic,"2,3,6,1",I019,,8,,4/13/2019,,C631851,,,,,,null,sound/3star.wav,,audio-keyboard-response,49,871150,0.0-6.0-1.21,dynamic,"2,3,6,1",I019,,8,,4/13/2019,,C631851,,,null,3,65,915,,0,html-button-response,50,872069,0.0-6.0-0.22,dynamic,"2,3,6,1",I019,,8,,4/13/2019,,C631851,,,,,,null,sound/2star.wav,,audio-keyboard-response,51,873575,0.0-6.0-1.22,dynamic,"2,3,6,1",I019,,8,,4/13/2019,,C631851,,,null,2,67,1151,,3,html-button-response,52,874734,0.0-6.0-0.23,dynamic,"2,3,6,1",I019,,8,,4/13/2019,,C631851,,,,,,null,sound/1star.wav,,audio-keyboard-response,53,876239,0.0-6.0-1.23,dynamic,"2,3,6,1",I019,,8,,4/13/2019,,C631851,,,null,1,68,828,,2,html-button-response,54,877075,0.0-6.0-0.24,dynamic,"2,3,6,1",I019,,8,,4/13/2019,,C631851,,,,,,null,sound/6star.wav,,audio-keyboard-response,55,878583,0.0-6.0-1.24,dynamic,"2,3,6,1",I019,,8,,4/13/2019,,C631851,,,null,6,74,2228,,0,html-button-response,56,880821,0.0-6.0-0.25,dynamic,"2,3,6,1",I019,,8,,4/13/2019,,C631851,,,,,,null,sound/2star.wav,,audio-keyboard-response,57,882327,0.0-6.0-1.25,dynamic,"2,3,6,1",I019,,8,,4/13/2019,,C631851,,,null,2,76,1548,,1,html-button-response,58,883885,0.0-6.0-0.26,dynamic,"2,3,6,1",I019,,8,,4/13/2019,,C631851,,,,,,null,sound/3star.wav,,audio-keyboard-response,59,885389,0.0-6.0-1.26,dynamic,"2,3,6,1",I019,,8,,4/13/2019,,C631851,,,null,3,79,1406,,3,html-button-response,60,886803,0.0-6.0-0.27,dynamic,"2,3,6,1",I019,,8,,4/13/2019,,C631851,,,,,,null,sound/1star.wav,,audio-keyboard-response,61,888306,0.0-6.0-1.27,dynamic,"2,3,6,1",I019,,8,,4/13/2019,,C631851,,,null,1,80,1095,,2,html-button-response,62,889411,0.0-6.0-0.28,dynamic,"2,3,6,1",I019,,8,,4/13/2019,,C631851,,,,,,null,sound/6star.wav,,audio-keyboard-response,63,890915,0.0-6.0-1.28,dynamic,"2,3,6,1",I019,,8,,4/13/2019,,C631851,,,null,6,86,1744,,0,html-button-response,64,892666,0.0-6.0-0.29,dynamic,"2,3,6,1",I019,,8,,4/13/2019,,C631851,,,,,,null,sound/2star.wav,,audio-keyboard-response,65,894174,0.0-6.0-1.29,dynamic,"2,3,6,1",I019,,8,,4/13/2019,,C631851,,,null,2,88,970,,2,html-button-response,66,895167,0.0-6.0-0.30,dynamic,"2,3,6,1",I019,,8,,4/13/2019,,C631851,,,,,,null,sound/6star.wav,,audio-keyboard-response,67,896672,0.0-6.0-1.30,dynamic,"2,3,6,1",I019,,8,,4/13/2019,,C631851,,,null,6,94,4199,,2,html-button-response,68,900882,0.0-6.0-0.31,dynamic,"2,3,6,1",I019,,8,,4/13/2019,,C631851,,,,,,null,sound/6star.wav,,audio-keyboard-response,69,902387,0.0-6.0-1.31,dynamic,"2,3,6,1",I019,,8,,4/13/2019,,C631851,,,null,6,100,1785,,3,html-button-response,70,904176,0.0-6.0-0.32,dynamic,"2,3,6,1",I019,,8,,4/13/2019,,C631851,,,,,,null,sound/1star.wav,,audio-keyboard-response,71,905679,0.0-6.0-1.32,dynamic,"2,3,6,1",I019,,8,,4/13/2019,,C631851,,,null,1,101,755,,0,html-button-response,72,906441,0.0-6.0-0.33,dynamic,"2,3,6,1",I019,,8,,4/13/2019,,C631851,,,,,,null,sound/2star.wav,,audio-keyboard-response,73,907948,0.0-6.0-1.33,dynamic,"2,3,6,1",I019,,8,,4/13/2019,,C631851,,,null,2,103,1218,,1,html-button-response,74,909177,0.0-6.0-0.34,dynamic,"2,3,6,1",I019,,8,,4/13/2019,,C631851,,,,,,null,sound/3star.wav,,audio-keyboard-response,75,910681,0.0-6.0-1.34,dynamic,"2,3,6,1",I019,,8,,4/13/2019,,C631851,,,null,3,106,2078,,2,html-button-response,76,912769,0.0-6.0-0.35,dynamic,"2,3,6,1",I019,,8,,4/13/2019,,C631851,,,,,,null,sound/6star.wav,,audio-keyboard-response,77,914274,0.0-6.0-1.35,dynamic,"2,3,6,1",I019,,8,,4/13/2019,,C631851,,,null,6,112,4939,,3,html-button-response,78,919219,0.0-6.0-0.36,dynamic,"2,3,6,1",I019,,8,,4/13/2019,,C631851,,,,,,null,sound/1star.wav,,audio-keyboard-response,79,920722,0.0-6.0-1.36,dynamic,"2,3,6,1",I019,,8,,4/13/2019,,C631851,,,null,1,113,1345,,1,html-button-response,80,922077,0.0-6.0-0.37,dynamic,"2,3,6,1",I019,,8,,4/13/2019,,C631851,,,,,,null,sound/3star.wav,,audio-keyboard-response,81,923584,0.0-6.0-1.37,dynamic,"2,3,6,1",I019,,8,,4/13/2019,,C631851,,,null,3,116,1404,,0,html-button-response,82,924997,0.0-6.0-0.38,dynamic,"2,3,6,1",I019,,8,,4/13/2019,,C631851,,,,,,null,sound/2star.wav,,audio-keyboard-response,83,926502,0.0-6.0-1.38,dynamic,"2,3,6,1",I019,,8,,4/13/2019,,C631851,,,null,2,118,1186,,3,html-button-response,84,927696,0.0-6.0-0.39,dynamic,"2,3,6,1",I019,,8,,4/13/2019,,C631851,,,,,,null,sound/1star.wav,,audio-keyboard-response,85,929198,0.0-6.0-1.39,dynamic,"2,3,6,1",I019,,8,,4/13/2019,,C631851,,,null,1,119,4033,,0,html-button-response,86,933253,0.0-7.0-0.0,dynamic,"2,3,6,1",I019,,8,,4/13/2019,,C631851,,,,,,null,sound/2star.wav,,audio-keyboard-response,87,934759,0.0-7.0-1.0,dynamic,"2,3,6,1",I019,,8,,4/13/2019,,C631851,,,null,2,121,891,,2,html-button-response,88,935656,0.0-7.0-0.1,dynamic,"2,3,6,1",I019,,8,,4/13/2019,,C631851,,,,,,null,sound/6star.wav,,audio-keyboard-response,89,937163,0.0-7.0-1.1,dynamic,"2,3,6,1",I019,,8,,4/13/2019,,C631851,,,null,6,127,1394,,1,html-button-response,90,938567,0.0-7.0-0.2,dynamic,"2,3,6,1",I019,,8,,4/13/2019,,C631851,,,,,,null,sound/3star.wav,,audio-keyboard-response,91,940072,0.0-7.0-1.2,dynamic,"2,3,6,1",I019,,8,,4/13/2019,,C631851,,,null,3,130,1292,,3,html-button-response,92,941369,0.0-7.0-0.3,dynamic,"2,3,6,1",I019,,8,,4/13/2019,,C631851,,,,,,null,sound/8star.wav,,audio-keyboard-response,93,942881,0.0-7.0-1.3,dynamic,"2,3,6,1",I019,,8,,4/13/2019,,C631851,,,null,8,138,1566,,2,html-button-response,94,944456,0.0-7.0-0.4,dynamic,"2,3,6,1",I019,,8,,4/13/2019,,C631851,,,,,,null,sound/6star.wav,,audio-keyboard-response,95,945967,0.0-7.0-1.4,dynamic,"2,3,6,1",I019,,8,,4/13/2019,,C631851,,,null,6,144,986,,0,html-button-response,96,946962,0.0-7.0-0.5,dynamic,"2,3,6,1",I019,,8,,4/13/2019,,C631851,,,,,,null,sound/2star.wav,,audio-keyboard-response,97,948464,0.0-7.0-1.5,dynamic,"2,3,6,1",I019,,8,,4/13/2019,,C631851,,,null,2,146,957,,1,html-button-response,98,949430,0.0-7.0-0.6,dynamic,"2,3,6,1",I019,,8,,4/13/2019,,C631851,,,,,,null,sound/3star.wav,,audio-keyboard-response,99,950934,0.0-7.0-1.6,dynamic,"2,3,6,1",I019,,8,,4/13/2019,,C631851,,,null,3,149,1375,,3,html-button-response,100,952316,0.0-7.0-0.7,dynamic,"2,3,6,1",I019,,8,,4/13/2019,,C631851,,,,,,null,sound/8star.wav,,audio-keyboard-response,101,953820,0.0-7.0-1.7,dynamic,"2,3,6,1",I019,,8,,4/13/2019,,C631851,,,null,8,157,2184,,2,html-button-response,102,956011,0.0-7.0-0.8,dynamic,"2,3,6,1",I019,,8,,4/13/2019,,C631851,,,,,,null,sound/6star.wav,,audio-keyboard-response,103,957515,0.0-7.0-1.8,dynamic,"2,3,6,1",I019,,8,,4/13/2019,,C631851,,,null,6,163,2425,,0,html-button-response,104,959963,0.0-7.0-0.9,dynamic,"2,3,6,1",I019,,8,,4/13/2019,,C631851,,,,,,null,sound/2star.wav,,audio-keyboard-response,105,961475,0.0-7.0-1.9,dynamic,"2,3,6,1",I019,,8,,4/13/2019,,C631851,,,null,2,165,1991,,1,html-button-response,106,963475,0.0-7.0-0.10,dynamic,"2,3,6,1",I019,,8,,4/13/2019,,C631851,,,,,,null,sound/3star.wav,,audio-keyboard-response,107,964994,0.0-7.0-1.10,dynamic,"2,3,6,1",I019,,8,,4/13/2019,,C631851,,,null,3,168,1780,,3,html-button-response,108,966786,0.0-7.0-0.11,dynamic,"2,3,6,1",I019,,8,,4/13/2019,,C631851,,,,,,null,sound/8star.wav,,audio-keyboard-response,109,968289,0.0-7.0-1.11,dynamic,"2,3,6,1",I019,,8,,4/13/2019,,C631851,,,null,8,176,1174,,2,html-button-response,110,969473,0.0-7.0-0.12,dynamic,"2,3,6,1",I019,,8,,4/13/2019,,C631851,,,,,,null,sound/6star.wav,,audio-keyboard-response,111,970978,0.0-7.0-1.12,dynamic,"2,3,6,1",I019,,8,,4/13/2019,,C631851,,,null,6,182,1497,,1,html-button-response,112,972485,0.0-7.0-0.13,dynamic,"2,3,6,1",I019,,8,,4/13/2019,,C631851,,,,,,null,sound/3star.wav,,audio-keyboard-response,113,973990,0.0-7.0-1.13,dynamic,"2,3,6,1",I019,,8,,4/13/2019,,C631851,,,null,3,185,1231,,0,html-button-response,114,975227,0.0-7.0-0.14,dynamic,"2,3,6,1",I019,,8,,4/13/2019,,C631851,,,,,,null,sound/2star.wav,,audio-keyboard-response,115,976732,0.0-7.0-1.14,dynamic,"2,3,6,1",I019,,8,,4/13/2019,,C631851,,,null,2,187,1866,,3,html-button-response,116,978608,0.0-7.0-0.15,dynamic,"2,3,6,1",I019,,8,,4/13/2019,,C631851,,,,,,null,sound/8star.wav,,audio-keyboard-response,117,980113,0.0-7.0-1.15,dynamic,"2,3,6,1",I019,,8,,4/13/2019,,C631851,,,null,8,195,1276,,2,html-button-response,118,981396,0.0-7.0-0.16,dynamic,"2,3,6,1",I019,,8,,4/13/2019,,C631851,,,,,,null,sound/6star.wav,,audio-keyboard-response,119,982902,0.0-7.0-1.16,dynamic,"2,3,6,1",I019,,8,,4/13/2019,,C631851,,,null,6,201,1419,,3,html-button-response,120,984328,0.0-7.0-0.17,dynamic,"2,3,6,1",I019,,8,,4/13/2019,,C631851,,,,,,null,sound/8star.wav,,audio-keyboard-response,121,985831,0.0-7.0-1.17,dynamic,"2,3,6,1",I019,,8,,4/13/2019,,C631851,,,null,8,209,2314,,0,html-button-response,122,988154,0.0-7.0-0.18,dynamic,"2,3,6,1",I019,,8,,4/13/2019,,C631851,,,,,,null,sound/2star.wav,,audio-keyboard-response,123,989665,0.0-7.0-1.18,dynamic,"2,3,6,1",I019,,8,,4/13/2019,,C631851,,,null,2,211,1340,,1,html-button-response,124,991012,0.0-7.0-0.19,dynamic,"2,3,6,1",I019,,8,,4/13/2019,,C631851,,,,,,null,sound/3star.wav,,audio-keyboard-response,125,992518,0.0-7.0-1.19,dynamic,"2,3,6,1",I019,,8,,4/13/2019,,C631851,,,null,3,214,1113,,2,html-button-response,126,993640,0.0-7.0-0.20,dynamic,"2,3,6,1",I019,,8,,4/13/2019,,C631851,,,,,,null,sound/6star.wav,,audio-keyboard-response,127,995158,0.0-7.0-1.20,dynamic,"2,3,6,1",I019,,8,,4/13/2019,,C631851,,,null,6,220,1516,,3,html-button-response,128,996683,0.0-7.0-0.21,dynamic,"2,3,6,1",I019,,8,,4/13/2019,,C631851,,,,,,null,sound/8star.wav,,audio-keyboard-response,129,998189,0.0-7.0-1.21,dynamic,"2,3,6,1",I019,,8,,4/13/2019,,C631851,,,null,8,228,1299,,0,html-button-response,130,999499,0.0-7.0-0.22,dynamic,"2,3,6,1",I019,,8,,4/13/2019,,C631851,,,,,,null,sound/2star.wav,,audio-keyboard-response,131,1001004,0.0-7.0-1.22,dynamic,"2,3,6,1",I019,,8,,4/13/2019,,C631851,,,null,2,230,1260,,3,html-button-response,132,1002273,0.0-7.0-0.23,dynamic,"2,3,6,1",I019,,8,,4/13/2019,,C631851,,,,,,null,sound/8star.wav,,audio-keyboard-response,133,1003777,0.0-7.0-1.23,dynamic,"2,3,6,1",I019,,8,,4/13/2019,,C631851,,,null,8,238,1262,,2,html-button-response,134,1005043,0.0-7.0-0.24,dynamic,"2,3,6,1",I019,,8,,4/13/2019,,C631851,,,,,,null,sound/6star.wav,,audio-keyboard-response,135,1006558,0.0-7.0-1.24,dynamic,"2,3,6,1",I019,,8,,4/13/2019,,C631851,,,null,6,244,1228,,1,html-button-response,136,1007808,0.0-7.0-0.25,dynamic,"2,3,6,1",I019,,8,,4/13/2019,,C631851,,,,,,null,sound/3star.wav,,audio-keyboard-response,137,1009312,0.0-7.0-1.25,dynamic,"2,3,6,1",I019,,8,,4/13/2019,,C631851,,,null,3,247,1590,,3,html-button-response,138,1010911,0.0-7.0-0.26,dynamic,"2,3,6,1",I019,,8,,4/13/2019,,C631851,,,,,,null,sound/8star.wav,,audio-keyboard-response,139,1012416,0.0-7.0-1.26,dynamic,"2,3,6,1",I019,,8,,4/13/2019,,C631851,,,null,8,255,1089,,2,html-button-response,140,1013511,0.0-7.0-0.27,dynamic,"2,3,6,1",I019,,8,,4/13/2019,,C631851,,,,,,null,sound/6star.wav,,audio-keyboard-response,141,1015018,0.0-7.0-1.27,dynamic,"2,3,6,1",I019,,8,,4/13/2019,,C631851,,,null,6,261,929,,0,html-button-response,142,1015956,0.0-7.0-0.28,dynamic,"2,3,6,1",I019,,8,,4/13/2019,,C631851,,,,,,null,sound/2star.wav,,audio-keyboard-response,143,1017462,0.0-7.0-1.28,dynamic,"2,3,6,1",I019,,8,,4/13/2019,,C631851,,,null,2,263,855,,1,html-button-response,144,1018324,0.0-7.0-0.29,dynamic,"2,3,6,1",I019,,8,,4/13/2019,,C631851,,,,,,null,sound/3star.wav,,audio-keyboard-response,145,1019827,0.0-7.0-1.29,dynamic,"2,3,6,1",I019,,8,,4/13/2019,,C631851,,,null,3,266,1224,,3,html-button-response,146,1021059,0.0-7.0-0.30,dynamic,"2,3,6,1",I019,,8,,4/13/2019,,C631851,,,,,,null,sound/8star.wav,,audio-keyboard-response,147,1022562,0.0-7.0-1.30,dynamic,"2,3,6,1",I019,,8,,4/13/2019,,C631851,,,null,8,274,3142,,2,html-button-response,148,1025709,0.0-7.0-0.31,dynamic,"2,3,6,1",I019,,8,,4/13/2019,,C631851,,,,,,null,sound/6star.wav,,audio-keyboard-response,149,1027212,0.0-7.0-1.31,dynamic,"2,3,6,1",I019,,8,,4/13/2019,,C631851,,,null,6,280,2213,,1,html-button-response,150,1029429,0.0-7.0-0.32,dynamic,"2,3,6,1",I019,,8,,4/13/2019,,C631851,,,,,,null,sound/3star.wav,,audio-keyboard-response,151,1030935,0.0-7.0-1.32,dynamic,"2,3,6,1",I019,,8,,4/13/2019,,C631851,,,null,3,283,925,,3,html-button-response,152,1031872,0.0-7.0-0.33,dynamic,"2,3,6,1",I019,,8,,4/13/2019,,C631851,,,,,,null,sound/8star.wav,,audio-keyboard-response,153,1033377,0.0-7.0-1.33,dynamic,"2,3,6,1",I019,,8,,4/13/2019,,C631851,,,null,8,291,1544,,2,html-button-response,154,1034927,0.0-7.0-0.34,dynamic,"2,3,6,1",I019,,8,,4/13/2019,,C631851,,,,,,null,sound/6star.wav,,audio-keyboard-response,155,1036433,0.0-7.0-1.34,dynamic,"2,3,6,1",I019,,8,,4/13/2019,,C631851,,,null,6,297,1421,,1,html-button-response,156,1037862,0.0-7.0-0.35,dynamic,"2,3,6,1",I019,,8,,4/13/2019,,C631851,,,,,,null,sound/3star.wav,,audio-keyboard-response,157,1039370,0.0-7.0-1.35,dynamic,"2,3,6,1",I019,,8,,4/13/2019,,C631851,,,null,3,300,1048,,0,html-button-response,158,1040426,0.0-7.0-0.36,dynamic,"2,3,6,1",I019,,8,,4/13/2019,,C631851,,,,,,null,sound/2star.wav,,audio-keyboard-response,159,1041928,0.0-7.0-1.36,dynamic,"2,3,6,1",I019,,8,,4/13/2019,,C631851,,,null,2,302,886,,2,html-button-response,160,1042820,0.0-7.0-0.37,dynamic,"2,3,6,1",I019,,8,,4/13/2019,,C631851,,,,,,null,sound/6star.wav,,audio-keyboard-response,161,1044327,0.0-7.0-1.37,dynamic,"2,3,6,1",I019,,8,,4/13/2019,,C631851,,,null,6,308,1332,,3,html-button-response,162,1045664,0.0-7.0-0.38,dynamic,"2,3,6,1",I019,,8,,4/13/2019,,C631851,,,,,,null,sound/8star.wav,,audio-keyboard-response,163,1047183,0.0-7.0-1.38,dynamic,"2,3,6,1",I019,,8,,4/13/2019,,C631851,,,null,8,316,1602,,0,html-button-response,164,1048813,0.0-7.0-0.39,dynamic,"2,3,6,1",I019,,8,,4/13/2019,,C631851,,,,,,null,sound/2star.wav,,audio-keyboard-response,165,1050318,0.0-7.0-1.39,dynamic,"2,3,6,1",I019,,8,,4/13/2019,,C631851,,,null,2,318,9797,sound/celebration.wav,0,audio-button-response,166,1060120,0.0-8.0,dynamic,"2,3,6,1",I019,,8,,4/13/2019,,C631851,,,,,,10975,"Which, if any, of these monsters ever gave you <b>1 star</b>?</p>",3,html-button-response,167,1071103,0.0-9.0-0.0,dynamic,"2,3,6,1",I019,,8,,4/13/2019,,C631851,,,,,,correct6447,"Which, if any, of these monsters ever gave you <b>2 stars</b>?</p>",0,html-button-response,168,1078357,0.0-10.0-0.0,dynamic,"2,3,6,1",I019,,8,,4/13/2019,,C631851,,,,,,correct4573,"Which, if any, of these monsters ever gave you <b>3 stars</b>?</p>",1,html-button-response,169,1083739,0.0-11.0-0.0,dynamic,"2,3,6,1",I019,,8,,4/13/2019,,C631851,,,,,,correct3865,"Which, if any, of these monsters ever gave you <b>6 stars</b>?</p>",2,html-button-response,170,1088613,0.0-12.0-0.0,dynamic,"2,3,6,1",I019,,8,,4/13/2019,,C631851,,,,,,correct3852,"Which, if any, of these monsters ever gave you <b>8 stars</b>?</p>",3,html-button-response,171,1093272,0.0-13.0-0.0,dynamic,"2,3,6,1",I019,,8,,4/13/2019,,C631851,,,,,,correct3233,Which monster did you like the most?</p>,3,html-button-response,172,1097316,0.0-14.0-0.0,dynamic,"2,3,6,1",I019,,8,,4/13/2019,,C631851,,,,,,7689,,,survey-text,173,1105809,0.0-15.0,dynamic,"2,3,6,1",I019,,8,,4/13/2019,,C631851,,"\{""Q0"":""Gave most dtars""\}",,,,rt,stimulus,button_pressed,trial_type,trial_index,time_elapsed,internal_node_id,condition,pointvals_firsthalf,subjID,gender,age,dob,dot,language,turkID,animation_sequence,responses,key_press,earnedThis,earnedCumulative,posttest23810,,0,html-button-response,0,23818,0.0-0.0,dynamic,"3,2,6,1",I009,,12,,"April 6, 2019",,C626272,,,,,,,,,animation,1,35827,0.0-1.0,dynamic,"3,2,6,1",I009,,12,,"April 6, 2019",,C626272,"[\{""stimulus"":""img/screen1a.png"",""time"":3008\},\{""stimulus"":""img/screen1b.png"",""time"":6007\},\{""stimulus"":""img/screen1c.png"",""time"":9011\}]",[],,,,2391,<img src='img/screen1d.png'></img>,0,html-button-response,2,38227,0.0-2.0,dynamic,"3,2,6,1",I009,,12,,"April 6, 2019",,C626272,,,,,,,,,animation,3,59034,0.0-3.0,dynamic,"3,2,6,1",I009,,12,,"April 6, 2019",,C626272,"[\{""stimulus"":""img/screen2.jpg"",""time"":802\},\{""stimulus"":""img/screen2.jpg"",""time"":1603\},\{""stimulus"":""img/screen2.jpg"",""time"":2404\},\{""stimulus"":""img/screen2.jpg"",""time"":3203\},\{""stimulus"":""img/screen2.jpg"",""time"":4003\},\{""stimulus"":""img/screen3a.jpg"",""time"":4802\},\{""stimulus"":""img/screen3b.jpg"",""time"":5606\},\{""stimulus"":""img/screen3c.jpg"",""time"":6406\},\{""stimulus"":""img/screen3d.jpg"",""time"":7205\},\{""stimulus"":""img/screen4a.jpg"",""time"":8002\},\{""stimulus"":""img/screen4a.jpg"",""time"":8806\},\{""stimulus"":""img/screen4b.jpg"",""time"":9606\},\{""stimulus"":""img/screen4c.jpg"",""time"":10406\},\{""stimulus"":""img/screen4d.jpg"",""time"":11202\},\{""stimulus"":""img/screen4d.jpg"",""time"":12001\},\{""stimulus"":""img/screen5a.jpg"",""time"":12805\},\{""stimulus"":""img/screen5b1.jpg"",""time"":13606\},\{""stimulus"":""img/screen5b2.jpg"",""time"":14407\},\{""stimulus"":""img/screen5b3.jpg"",""time"":15202\},\{""stimulus"":""img/screen5b4.jpg"",""time"":16002\},\{""stimulus"":""img/screen5b5.jpg"",""time"":16801\},\{""stimulus"":""img/screen5b6.jpg"",""time"":17606\},\{""stimulus"":""img/screen5c.jpg"",""time"":18406\},\{""stimulus"":""img/screen5d.jpg"",""time"":19202\},\{""stimulus"":""img/screen5d.jpg"",""time"":20001\}]",[],,,,4739,<img src='img/screen5e.jpg'></img>,0,html-button-response,4,63778,0.0-4.0,dynamic,"3,2,6,1",I009,,12,,"April 6, 2019",,C626272,,,,,,5959,<p align='center'></p>,0,html-button-response,5,69742,0.0-5.0,dynamic,"3,2,6,1",I009,,12,,"April 6, 2019",,C626272,,,,,,5157,,1,html-button-response,6,74910,0.0-6.0-0.0,dynamic,"3,2,6,1",I009,,12,,"April 6, 2019",,C626272,,,,,,null,sound/2star.wav,,audio-keyboard-response,7,76416,0.0-6.0-1.0,dynamic,"3,2,6,1",I009,,12,,"April 6, 2019",,C626272,,,null,2,2,3325,,2,html-button-response,8,79753,0.0-6.0-0.1,dynamic,"3,2,6,1",I009,,12,,"April 6, 2019",,C626272,,,,,,null,sound/6star.wav,,audio-keyboard-response,9,81259,0.0-6.0-1.1,dynamic,"3,2,6,1",I009,,12,,"April 6, 2019",,C626272,,,null,6,8,1985,,3,html-button-response,10,83254,0.0-6.0-0.2,dynamic,"3,2,6,1",I009,,12,,"April 6, 2019",,C626272,,,,,,null,sound/1star.wav,,audio-keyboard-response,11,84759,0.0-6.0-1.2,dynamic,"3,2,6,1",I009,,12,,"April 6, 2019",,C626272,,,null,1,9,1058,,0,html-button-response,12,85826,0.0-6.0-0.3,dynamic,"3,2,6,1",I009,,12,,"April 6, 2019",,C626272,,,,,,null,sound/3star.wav,,audio-keyboard-response,13,87342,0.0-6.0-1.3,dynamic,"3,2,6,1",I009,,12,,"April 6, 2019",,C626272,,,null,3,12,1894,,1,html-button-response,14,89244,0.0-6.0-0.4,dynamic,"3,2,6,1",I009,,12,,"April 6, 2019",,C626272,,,,,,null,sound/2star.wav,,audio-keyboard-response,15,90752,0.0-6.0-1.4,dynamic,"3,2,6,1",I009,,12,,"April 6, 2019",,C626272,,,null,2,14,813,,2,html-button-response,16,91574,0.0-6.0-0.5,dynamic,"3,2,6,1",I009,,12,,"April 6, 2019",,C626272,,,,,,null,sound/6star.wav,,audio-keyboard-response,17,93078,0.0-6.0-1.5,dynamic,"3,2,6,1",I009,,12,,"April 6, 2019",,C626272,,,null,6,20,1007,,3,html-button-response,18,94093,0.0-6.0-0.6,dynamic,"3,2,6,1",I009,,12,,"April 6, 2019",,C626272,,,,,,null,sound/1star.wav,,audio-keyboard-response,19,95598,0.0-6.0-1.6,dynamic,"3,2,6,1",I009,,12,,"April 6, 2019",,C626272,,,null,1,21,936,,0,html-button-response,20,96543,0.0-6.0-0.7,dynamic,"3,2,6,1",I009,,12,,"April 6, 2019",,C626272,,,,,,null,sound/3star.wav,,audio-keyboard-response,21,98049,0.0-6.0-1.7,dynamic,"3,2,6,1",I009,,12,,"April 6, 2019",,C626272,,,null,3,24,2201,,1,html-button-response,22,100260,0.0-6.0-0.8,dynamic,"3,2,6,1",I009,,12,,"April 6, 2019",,C626272,,,,,,null,sound/2star.wav,,audio-keyboard-response,23,101766,0.0-6.0-1.8,dynamic,"3,2,6,1",I009,,12,,"April 6, 2019",,C626272,,,null,2,26,881,,2,html-button-response,24,102660,0.0-6.0-0.9,dynamic,"3,2,6,1",I009,,12,,"April 6, 2019",,C626272,,,,,,null,sound/6star.wav,,audio-keyboard-response,25,104164,0.0-6.0-1.9,dynamic,"3,2,6,1",I009,,12,,"April 6, 2019",,C626272,,,null,6,32,1596,,0,html-button-response,26,105769,0.0-6.0-0.10,dynamic,"3,2,6,1",I009,,12,,"April 6, 2019",,C626272,,,,,,null,sound/3star.wav,,audio-keyboard-response,27,107273,0.0-6.0-1.10,dynamic,"3,2,6,1",I009,,12,,"April 6, 2019",,C626272,,,null,3,35,808,,3,html-button-response,28,108088,0.0-6.0-0.11,dynamic,"3,2,6,1",I009,,12,,"April 6, 2019",,C626272,,,,,,null,sound/1star.wav,,audio-keyboard-response,29,109592,0.0-6.0-1.11,dynamic,"3,2,6,1",I009,,12,,"April 6, 2019",,C626272,,,null,1,36,1016,,2,html-button-response,30,110617,0.0-6.0-0.12,dynamic,"3,2,6,1",I009,,12,,"April 6, 2019",,C626272,,,,,,null,sound/6star.wav,,audio-keyboard-response,31,112122,0.0-6.0-1.12,dynamic,"3,2,6,1",I009,,12,,"April 6, 2019",,C626272,,,null,6,42,1601,,1,html-button-response,32,113734,0.0-6.0-0.13,dynamic,"3,2,6,1",I009,,12,,"April 6, 2019",,C626272,,,,,,null,sound/2star.wav,,audio-keyboard-response,33,115239,0.0-6.0-1.13,dynamic,"3,2,6,1",I009,,12,,"April 6, 2019",,C626272,,,null,2,44,1061,,0,html-button-response,34,116316,0.0-6.0-0.14,dynamic,"3,2,6,1",I009,,12,,"April 6, 2019",,C626272,,,,,,null,sound/3star.wav,,audio-keyboard-response,35,117821,0.0-6.0-1.14,dynamic,"3,2,6,1",I009,,12,,"April 6, 2019",,C626272,,,null,3,47,761,,3,html-button-response,36,118593,0.0-6.0-0.15,dynamic,"3,2,6,1",I009,,12,,"April 6, 2019",,C626272,,,,,,null,sound/1star.wav,,audio-keyboard-response,37,120101,0.0-6.0-1.15,dynamic,"3,2,6,1",I009,,12,,"April 6, 2019",,C626272,,,null,1,48,1089,,2,html-button-response,38,121197,0.0-6.0-0.16,dynamic,"3,2,6,1",I009,,12,,"April 6, 2019",,C626272,,,,,,null,sound/6star.wav,,audio-keyboard-response,39,122704,0.0-6.0-1.16,dynamic,"3,2,6,1",I009,,12,,"April 6, 2019",,C626272,,,null,6,54,1185,,0,html-button-response,40,123897,0.0-6.0-0.17,dynamic,"3,2,6,1",I009,,12,,"April 6, 2019",,C626272,,,,,,null,sound/3star.wav,,audio-keyboard-response,41,125405,0.0-6.0-1.17,dynamic,"3,2,6,1",I009,,12,,"April 6, 2019",,C626272,,,null,3,57,759,,1,html-button-response,42,126170,0.0-6.0-0.18,dynamic,"3,2,6,1",I009,,12,,"April 6, 2019",,C626272,,,,,,null,sound/2star.wav,,audio-keyboard-response,43,127682,0.0-6.0-1.18,dynamic,"3,2,6,1",I009,,12,,"April 6, 2019",,C626272,,,null,2,59,721,,3,html-button-response,44,128416,0.0-6.0-0.19,dynamic,"3,2,6,1",I009,,12,,"April 6, 2019",,C626272,,,,,,null,sound/1star.wav,,audio-keyboard-response,45,129935,0.0-6.0-1.19,dynamic,"3,2,6,1",I009,,12,,"April 6, 2019",,C626272,,,null,1,60,938,,2,html-button-response,46,130890,0.0-6.0-0.20,dynamic,"3,2,6,1",I009,,12,,"April 6, 2019",,C626272,,,,,,null,sound/6star.wav,,audio-keyboard-response,47,132395,0.0-6.0-1.20,dynamic,"3,2,6,1",I009,,12,,"April 6, 2019",,C626272,,,null,6,66,1065,,0,html-button-response,48,133469,0.0-6.0-0.21,dynamic,"3,2,6,1",I009,,12,,"April 6, 2019",,C626272,,,,,,null,sound/3star.wav,,audio-keyboard-response,49,134974,0.0-6.0-1.21,dynamic,"3,2,6,1",I009,,12,,"April 6, 2019",,C626272,,,null,3,69,698,,1,html-button-response,50,135685,0.0-6.0-0.22,dynamic,"3,2,6,1",I009,,12,,"April 6, 2019",,C626272,,,,,,null,sound/2star.wav,,audio-keyboard-response,51,137190,0.0-6.0-1.22,dynamic,"3,2,6,1",I009,,12,,"April 6, 2019",,C626272,,,null,2,71,699,,3,html-button-response,52,137904,0.0-6.0-0.23,dynamic,"3,2,6,1",I009,,12,,"April 6, 2019",,C626272,,,,,,null,sound/1star.wav,,audio-keyboard-response,53,139413,0.0-6.0-1.23,dynamic,"3,2,6,1",I009,,12,,"April 6, 2019",,C626272,,,null,1,72,807,,2,html-button-response,54,140230,0.0-6.0-0.24,dynamic,"3,2,6,1",I009,,12,,"April 6, 2019",,C626272,,,,,,null,sound/6star.wav,,audio-keyboard-response,55,141756,0.0-6.0-1.24,dynamic,"3,2,6,1",I009,,12,,"April 6, 2019",,C626272,,,null,6,78,875,,0,html-button-response,56,142645,0.0-6.0-0.25,dynamic,"3,2,6,1",I009,,12,,"April 6, 2019",,C626272,,,,,,null,sound/3star.wav,,audio-keyboard-response,57,144155,0.0-6.0-1.25,dynamic,"3,2,6,1",I009,,12,,"April 6, 2019",,C626272,,,null,3,81,717,,1,html-button-response,58,144880,0.0-6.0-0.26,dynamic,"3,2,6,1",I009,,12,,"April 6, 2019",,C626272,,,,,,null,sound/2star.wav,,audio-keyboard-response,59,146386,0.0-6.0-1.26,dynamic,"3,2,6,1",I009,,12,,"April 6, 2019",,C626272,,,null,2,83,655,,3,html-button-response,60,147052,0.0-6.0-0.27,dynamic,"3,2,6,1",I009,,12,,"April 6, 2019",,C626272,,,,,,null,sound/1star.wav,,audio-keyboard-response,61,148557,0.0-6.0-1.27,dynamic,"3,2,6,1",I009,,12,,"April 6, 2019",,C626272,,,null,1,84,866,,2,html-button-response,62,149432,0.0-6.0-0.28,dynamic,"3,2,6,1",I009,,12,,"April 6, 2019",,C626272,,,,,,null,sound/6star.wav,,audio-keyboard-response,63,150945,0.0-6.0-1.28,dynamic,"3,2,6,1",I009,,12,,"April 6, 2019",,C626272,,,null,6,90,816,,0,html-button-response,64,151771,0.0-6.0-0.29,dynamic,"3,2,6,1",I009,,12,,"April 6, 2019",,C626272,,,,,,null,sound/3star.wav,,audio-keyboard-response,65,153307,0.0-6.0-1.29,dynamic,"3,2,6,1",I009,,12,,"April 6, 2019",,C626272,,,null,3,93,736,,1,html-button-response,66,154053,0.0-6.0-0.30,dynamic,"3,2,6,1",I009,,12,,"April 6, 2019",,C626272,,,,,,null,sound/2star.wav,,audio-keyboard-response,67,155557,0.0-6.0-1.30,dynamic,"3,2,6,1",I009,,12,,"April 6, 2019",,C626272,,,null,2,95,1003,,3,html-button-response,68,156572,0.0-6.0-0.31,dynamic,"3,2,6,1",I009,,12,,"April 6, 2019",,C626272,,,,,,null,sound/1star.wav,,audio-keyboard-response,69,158090,0.0-6.0-1.31,dynamic,"3,2,6,1",I009,,12,,"April 6, 2019",,C626272,,,null,1,96,770,,2,html-button-response,70,158869,0.0-6.0-0.32,dynamic,"3,2,6,1",I009,,12,,"April 6, 2019",,C626272,,,,,,null,sound/6star.wav,,audio-keyboard-response,71,160373,0.0-6.0-1.32,dynamic,"3,2,6,1",I009,,12,,"April 6, 2019",,C626272,,,null,6,102,726,,0,html-button-response,72,161110,0.0-6.0-0.33,dynamic,"3,2,6,1",I009,,12,,"April 6, 2019",,C626272,,,,,,null,sound/3star.wav,,audio-keyboard-response,73,162615,0.0-6.0-1.33,dynamic,"3,2,6,1",I009,,12,,"April 6, 2019",,C626272,,,null,3,105,1231,,1,html-button-response,74,163857,0.0-6.0-0.34,dynamic,"3,2,6,1",I009,,12,,"April 6, 2019",,C626272,,,,,,null,sound/2star.wav,,audio-keyboard-response,75,165365,0.0-6.0-1.34,dynamic,"3,2,6,1",I009,,12,,"April 6, 2019",,C626272,,,null,2,107,1425,,3,html-button-response,76,166798,0.0-6.0-0.35,dynamic,"3,2,6,1",I009,,12,,"April 6, 2019",,C626272,,,,,,null,sound/1star.wav,,audio-keyboard-response,77,168304,0.0-6.0-1.35,dynamic,"3,2,6,1",I009,,12,,"April 6, 2019",,C626272,,,null,1,108,909,,2,html-button-response,78,169225,0.0-6.0-0.36,dynamic,"3,2,6,1",I009,,12,,"April 6, 2019",,C626272,,,,,,null,sound/6star.wav,,audio-keyboard-response,79,170728,0.0-6.0-1.36,dynamic,"3,2,6,1",I009,,12,,"April 6, 2019",,C626272,,,null,6,114,981,,2,html-button-response,80,171721,0.0-6.0-0.37,dynamic,"3,2,6,1",I009,,12,,"April 6, 2019",,C626272,,,,,,null,sound/6star.wav,,audio-keyboard-response,81,173224,0.0-6.0-1.37,dynamic,"3,2,6,1",I009,,12,,"April 6, 2019",,C626272,,,null,6,120,863,,2,html-button-response,82,174096,0.0-6.0-0.38,dynamic,"3,2,6,1",I009,,12,,"April 6, 2019",,C626272,,,,,,null,sound/6star.wav,,audio-keyboard-response,83,175602,0.0-6.0-1.38,dynamic,"3,2,6,1",I009,,12,,"April 6, 2019",,C626272,,,null,6,126,920,,2,html-button-response,84,176532,0.0-6.0-0.39,dynamic,"3,2,6,1",I009,,12,,"April 6, 2019",,C626272,,,,,,null,sound/6star.wav,,audio-keyboard-response,85,178038,0.0-6.0-1.39,dynamic,"3,2,6,1",I009,,12,,"April 6, 2019",,C626272,,,null,6,132,1090,,2,html-button-response,86,179138,0.0-7.0-0.0,dynamic,"3,2,6,1",I009,,12,,"April 6, 2019",,C626272,,,,,,null,sound/6star.wav,,audio-keyboard-response,87,180642,0.0-7.0-1.0,dynamic,"3,2,6,1",I009,,12,,"April 6, 2019",,C626272,,,null,6,138,775,,2,html-button-response,88,181428,0.0-7.0-0.1,dynamic,"3,2,6,1",I009,,12,,"April 6, 2019",,C626272,,,,,,null,sound/6star.wav,,audio-keyboard-response,89,182933,0.0-7.0-1.1,dynamic,"3,2,6,1",I009,,12,,"April 6, 2019",,C626272,,,null,6,144,780,,2,html-button-response,90,183723,0.0-7.0-0.2,dynamic,"3,2,6,1",I009,,12,,"April 6, 2019",,C626272,,,,,,null,sound/6star.wav,,audio-keyboard-response,91,185231,0.0-7.0-1.2,dynamic,"3,2,6,1",I009,,12,,"April 6, 2019",,C626272,,,null,6,150,736,,2,html-button-response,92,185973,0.0-7.0-0.3,dynamic,"3,2,6,1",I009,,12,,"April 6, 2019",,C626272,,,,,,null,sound/6star.wav,,audio-keyboard-response,93,187476,0.0-7.0-1.3,dynamic,"3,2,6,1",I009,,12,,"April 6, 2019",,C626272,,,null,6,156,773,,2,html-button-response,94,188275,0.0-7.0-0.4,dynamic,"3,2,6,1",I009,,12,,"April 6, 2019",,C626272,,,,,,null,sound/6star.wav,,audio-keyboard-response,95,189781,0.0-7.0-1.4,dynamic,"3,2,6,1",I009,,12,,"April 6, 2019",,C626272,,,null,6,162,777,,2,html-button-response,96,190566,0.0-7.0-0.5,dynamic,"3,2,6,1",I009,,12,,"April 6, 2019",,C626272,,,,,,null,sound/6star.wav,,audio-keyboard-response,97,192072,0.0-7.0-1.5,dynamic,"3,2,6,1",I009,,12,,"April 6, 2019",,C626272,,,null,6,168,695,,2,html-button-response,98,192780,0.0-7.0-0.6,dynamic,"3,2,6,1",I009,,12,,"April 6, 2019",,C626272,,,,,,null,sound/6star.wav,,audio-keyboard-response,99,194289,0.0-7.0-1.6,dynamic,"3,2,6,1",I009,,12,,"April 6, 2019",,C626272,,,null,6,174,668,,2,html-button-response,100,194966,0.0-7.0-0.7,dynamic,"3,2,6,1",I009,,12,,"April 6, 2019",,C626272,,,,,,null,sound/6star.wav,,audio-keyboard-response,101,196469,0.0-7.0-1.7,dynamic,"3,2,6,1",I009,,12,,"April 6, 2019",,C626272,,,null,6,180,701,,2,html-button-response,102,197180,0.0-7.0-0.8,dynamic,"3,2,6,1",I009,,12,,"April 6, 2019",,C626272,,,,,,null,sound/6star.wav,,audio-keyboard-response,103,198691,0.0-7.0-1.8,dynamic,"3,2,6,1",I009,,12,,"April 6, 2019",,C626272,,,null,6,186,744,,2,html-button-response,104,199455,0.0-7.0-0.9,dynamic,"3,2,6,1",I009,,12,,"April 6, 2019",,C626272,,,,,,null,sound/6star.wav,,audio-keyboard-response,105,200959,0.0-7.0-1.9,dynamic,"3,2,6,1",I009,,12,,"April 6, 2019",,C626272,,,null,6,192,765,,2,html-button-response,106,201732,0.0-7.0-0.10,dynamic,"3,2,6,1",I009,,12,,"April 6, 2019",,C626272,,,,,,null,sound/6star.wav,,audio-keyboard-response,107,203235,0.0-7.0-1.10,dynamic,"3,2,6,1",I009,,12,,"April 6, 2019",,C626272,,,null,6,198,740,,2,html-button-response,108,203985,0.0-7.0-0.11,dynamic,"3,2,6,1",I009,,12,,"April 6, 2019",,C626272,,,,,,null,sound/6star.wav,,audio-keyboard-response,109,205487,0.0-7.0-1.11,dynamic,"3,2,6,1",I009,,12,,"April 6, 2019",,C626272,,,null,6,204,714,,2,html-button-response,110,206207,0.0-7.0-0.12,dynamic,"3,2,6,1",I009,,12,,"April 6, 2019",,C626272,,,,,,null,sound/6star.wav,,audio-keyboard-response,111,207712,0.0-7.0-1.12,dynamic,"3,2,6,1",I009,,12,,"April 6, 2019",,C626272,,,null,6,210,687,,2,html-button-response,112,208407,0.0-7.0-0.13,dynamic,"3,2,6,1",I009,,12,,"April 6, 2019",,C626272,,,,,,null,sound/6star.wav,,audio-keyboard-response,113,209910,0.0-7.0-1.13,dynamic,"3,2,6,1",I009,,12,,"April 6, 2019",,C626272,,,null,6,216,683,,2,html-button-response,114,210604,0.0-7.0-0.14,dynamic,"3,2,6,1",I009,,12,,"April 6, 2019",,C626272,,,,,,null,sound/6star.wav,,audio-keyboard-response,115,212108,0.0-7.0-1.14,dynamic,"3,2,6,1",I009,,12,,"April 6, 2019",,C626272,,,null,6,222,737,,2,html-button-response,116,212853,0.0-7.0-0.15,dynamic,"3,2,6,1",I009,,12,,"April 6, 2019",,C626272,,,,,,null,sound/6star.wav,,audio-keyboard-response,117,214357,0.0-7.0-1.15,dynamic,"3,2,6,1",I009,,12,,"April 6, 2019",,C626272,,,null,6,228,743,,2,html-button-response,118,215109,0.0-7.0-0.16,dynamic,"3,2,6,1",I009,,12,,"April 6, 2019",,C626272,,,,,,null,sound/6star.wav,,audio-keyboard-response,119,216613,0.0-7.0-1.16,dynamic,"3,2,6,1",I009,,12,,"April 6, 2019",,C626272,,,null,6,234,752,,2,html-button-response,120,217374,0.0-7.0-0.17,dynamic,"3,2,6,1",I009,,12,,"April 6, 2019",,C626272,,,,,,null,sound/6star.wav,,audio-keyboard-response,121,218877,0.0-7.0-1.17,dynamic,"3,2,6,1",I009,,12,,"April 6, 2019",,C626272,,,null,6,240,1276,,2,html-button-response,122,220162,0.0-7.0-0.18,dynamic,"3,2,6,1",I009,,12,,"April 6, 2019",,C626272,,,,,,null,sound/6star.wav,,audio-keyboard-response,123,221664,0.0-7.0-1.18,dynamic,"3,2,6,1",I009,,12,,"April 6, 2019",,C626272,,,null,6,246,819,,0,html-button-response,124,222520,0.0-7.0-0.19,dynamic,"3,2,6,1",I009,,12,,"April 6, 2019",,C626272,,,,,,null,sound/3star.wav,,audio-keyboard-response,125,224023,0.0-7.0-1.19,dynamic,"3,2,6,1",I009,,12,,"April 6, 2019",,C626272,,,null,3,249,804,,2,html-button-response,126,224835,0.0-7.0-0.20,dynamic,"3,2,6,1",I009,,12,,"April 6, 2019",,C626272,,,,,,null,sound/6star.wav,,audio-keyboard-response,127,226339,0.0-7.0-1.20,dynamic,"3,2,6,1",I009,,12,,"April 6, 2019",,C626272,,,null,6,255,977,,2,html-button-response,128,227325,0.0-7.0-0.21,dynamic,"3,2,6,1",I009,,12,,"April 6, 2019",,C626272,,,,,,null,sound/6star.wav,,audio-keyboard-response,129,228830,0.0-7.0-1.21,dynamic,"3,2,6,1",I009,,12,,"April 6, 2019",,C626272,,,null,6,261,890,,2,html-button-response,130,229728,0.0-7.0-0.22,dynamic,"3,2,6,1",I009,,12,,"April 6, 2019",,C626272,,,,,,null,sound/6star.wav,,audio-keyboard-response,131,231234,0.0-7.0-1.22,dynamic,"3,2,6,1",I009,,12,,"April 6, 2019",,C626272,,,null,6,267,716,,2,html-button-response,132,231959,0.0-7.0-0.23,dynamic,"3,2,6,1",I009,,12,,"April 6, 2019",,C626272,,,,,,null,sound/6star.wav,,audio-keyboard-response,133,233464,0.0-7.0-1.23,dynamic,"3,2,6,1",I009,,12,,"April 6, 2019",,C626272,,,null,6,273,712,,2,html-button-response,134,234185,0.0-7.0-0.24,dynamic,"3,2,6,1",I009,,12,,"April 6, 2019",,C626272,,,,,,null,sound/6star.wav,,audio-keyboard-response,135,235689,0.0-7.0-1.24,dynamic,"3,2,6,1",I009,,12,,"April 6, 2019",,C626272,,,null,6,279,859,,2,html-button-response,136,236559,0.0-7.0-0.25,dynamic,"3,2,6,1",I009,,12,,"April 6, 2019",,C626272,,,,,,null,sound/6star.wav,,audio-keyboard-response,137,238063,0.0-7.0-1.25,dynamic,"3,2,6,1",I009,,12,,"April 6, 2019",,C626272,,,null,6,285,925,,2,html-button-response,138,238996,0.0-7.0-0.26,dynamic,"3,2,6,1",I009,,12,,"April 6, 2019",,C626272,,,,,,null,sound/6star.wav,,audio-keyboard-response,139,240500,0.0-7.0-1.26,dynamic,"3,2,6,1",I009,,12,,"April 6, 2019",,C626272,,,null,6,291,1295,,2,html-button-response,140,241805,0.0-7.0-0.27,dynamic,"3,2,6,1",I009,,12,,"April 6, 2019",,C626272,,,,,,null,sound/6star.wav,,audio-keyboard-response,141,243310,0.0-7.0-1.27,dynamic,"3,2,6,1",I009,,12,,"April 6, 2019",,C626272,,,null,6,297,643,,2,html-button-response,142,243964,0.0-7.0-0.28,dynamic,"3,2,6,1",I009,,12,,"April 6, 2019",,C626272,,,,,,null,sound/6star.wav,,audio-keyboard-response,143,245473,0.0-7.0-1.28,dynamic,"3,2,6,1",I009,,12,,"April 6, 2019",,C626272,,,null,6,303,508,,2,html-button-response,144,245988,0.0-7.0-0.29,dynamic,"3,2,6,1",I009,,12,,"April 6, 2019",,C626272,,,,,,null,sound/6star.wav,,audio-keyboard-response,145,247492,0.0-7.0-1.29,dynamic,"3,2,6,1",I009,,12,,"April 6, 2019",,C626272,,,null,6,309,633,,2,html-button-response,146,248134,0.0-7.0-0.30,dynamic,"3,2,6,1",I009,,12,,"April 6, 2019",,C626272,,,,,,null,sound/6star.wav,,audio-keyboard-response,147,249643,0.0-7.0-1.30,dynamic,"3,2,6,1",I009,,12,,"April 6, 2019",,C626272,,,null,6,315,462,,2,html-button-response,148,250118,0.0-7.0-0.31,dynamic,"3,2,6,1",I009,,12,,"April 6, 2019",,C626272,,,,,,null,sound/6star.wav,,audio-keyboard-response,149,251633,0.0-7.0-1.31,dynamic,"3,2,6,1",I009,,12,,"April 6, 2019",,C626272,,,null,6,321,652,,2,html-button-response,150,252306,0.0-7.0-0.32,dynamic,"3,2,6,1",I009,,12,,"April 6, 2019",,C626272,,,,,,null,sound/6star.wav,,audio-keyboard-response,151,253810,0.0-7.0-1.32,dynamic,"3,2,6,1",I009,,12,,"April 6, 2019",,C626272,,,null,6,327,644,,2,html-button-response,152,254462,0.0-7.0-0.33,dynamic,"3,2,6,1",I009,,12,,"April 6, 2019",,C626272,,,,,,null,sound/6star.wav,,audio-keyboard-response,153,255966,0.0-7.0-1.33,dynamic,"3,2,6,1",I009,,12,,"April 6, 2019",,C626272,,,null,6,333,1405,,1,html-button-response,154,257381,0.0-7.0-0.34,dynamic,"3,2,6,1",I009,,12,,"April 6, 2019",,C626272,,,,,,null,sound/2star.wav,,audio-keyboard-response,155,258886,0.0-7.0-1.34,dynamic,"3,2,6,1",I009,,12,,"April 6, 2019",,C626272,,,null,2,335,676,,3,html-button-response,156,259573,0.0-7.0-0.35,dynamic,"3,2,6,1",I009,,12,,"April 6, 2019",,C626272,,,,,,null,sound/8star.wav,,audio-keyboard-response,157,261076,0.0-7.0-1.35,dynamic,"3,2,6,1",I009,,12,,"April 6, 2019",,C626272,,,null,8,343,789,,3,html-button-response,158,261874,0.0-7.0-0.36,dynamic,"3,2,6,1",I009,,12,,"April 6, 2019",,C626272,,,,,,null,sound/8star.wav,,audio-keyboard-response,159,263377,0.0-7.0-1.36,dynamic,"3,2,6,1",I009,,12,,"April 6, 2019",,C626272,,,null,8,351,819,,3,html-button-response,160,264204,0.0-7.0-0.37,dynamic,"3,2,6,1",I009,,12,,"April 6, 2019",,C626272,,,,,,null,sound/8star.wav,,audio-keyboard-response,161,265720,0.0-7.0-1.37,dynamic,"3,2,6,1",I009,,12,,"April 6, 2019",,C626272,,,null,8,359,942,,3,html-button-response,162,266672,0.0-7.0-0.38,dynamic,"3,2,6,1",I009,,12,,"April 6, 2019",,C626272,,,,,,null,sound/8star.wav,,audio-keyboard-response,163,268178,0.0-7.0-1.38,dynamic,"3,2,6,1",I009,,12,,"April 6, 2019",,C626272,,,null,8,367,675,,0,html-button-response,164,268861,0.0-7.0-0.39,dynamic,"3,2,6,1",I009,,12,,"April 6, 2019",,C626272,,,,,,null,sound/3star.wav,,audio-keyboard-response,165,270363,0.0-7.0-1.39,dynamic,"3,2,6,1",I009,,12,,"April 6, 2019",,C626272,,,null,3,370,13231,sound/celebration.wav,0,audio-button-response,166,283604,0.0-8.0,dynamic,"3,2,6,1",I009,,12,,"April 6, 2019",,C626272,,,,,,5861,"Which, if any, of these monsters ever gave you <b>1 star</b>?</p>",4,html-button-response,167,289473,0.0-9.0-0.0,dynamic,"3,2,6,1",I009,,12,,"April 6, 2019",,C626272,,,,,,incorrect5344,"Which, if any, of these monsters ever gave you <b>2 stars</b>?</p>",1,html-button-response,168,295626,0.0-10.0-0.0,dynamic,"3,2,6,1",I009,,12,,"April 6, 2019",,C626272,,,,,,correct3188,"Which, if any, of these monsters ever gave you <b>3 stars</b>?</p>",0,html-button-response,169,299625,0.0-11.0-0.0,dynamic,"3,2,6,1",I009,,12,,"April 6, 2019",,C626272,,,,,,correct4255,"Which, if any, of these monsters ever gave you <b>6 stars</b>?</p>",2,html-button-response,170,304894,0.0-12.0-0.0,dynamic,"3,2,6,1",I009,,12,,"April 6, 2019",,C626272,,,,,,correct3119,"Which, if any, of these monsters ever gave you <b>8 stars</b>?</p>",3,html-button-response,171,308825,0.0-13.0-0.0,dynamic,"3,2,6,1",I009,,12,,"April 6, 2019",,C626272,,,,,,correct4050,Which monster did you like the most?</p>,3,html-button-response,172,313691,0.0-14.0-0.0,dynamic,"3,2,6,1",I009,,12,,"April 6, 2019",,C626272,,,,,,30858,,,survey-text,173,345356,0.0-15.0,dynamic,"3,2,6,1",I009,,12,,"April 6, 2019",,C626272,,"\{""Q0"":""Gave the most stars""\}",,,,rt,stimulus,button_pressed,trial_type,trial_index,time_elapsed,internal_node_id,condition,pointvals_firsthalf,subjID,gender,age,dob,dot,language,turkID,animation_sequence,responses,key_press,earnedThis,earnedCumulative,posttest38208,,0,html-button-response,0,38214,0.0-0.0,static,"1,2,3,6",I007,,8,2/2/11,"April 6 , 2019",,C668306,,,,,,,,,animation,1,50223,0.0-1.0,static,"1,2,3,6",I007,,8,2/2/11,"April 6 , 2019",,C668306,"[\{""stimulus"":""img/screen1a.png"",""time"":3002\},\{""stimulus"":""img/screen1b.png"",""time"":6006\},\{""stimulus"":""img/screen1c.png"",""time"":9005\}]",[],,,,2470,<img src='img/screen1d.png'></img>,0,html-button-response,2,52700,0.0-2.0,static,"1,2,3,6",I007,,8,2/2/11,"April 6 , 2019",,C668306,,,,,,,,,animation,3,73507,0.0-3.0,static,"1,2,3,6",I007,,8,2/2/11,"April 6 , 2019",,C668306,"[\{""stimulus"":""img/screen2.jpg"",""time"":802\},\{""stimulus"":""img/screen2.jpg"",""time"":1602\},\{""stimulus"":""img/screen2.jpg"",""time"":2403\},\{""stimulus"":""img/screen2.jpg"",""time"":3201\},\{""stimulus"":""img/screen2.jpg"",""time"":4005\},\{""stimulus"":""img/screen3a.jpg"",""time"":4805\},\{""stimulus"":""img/screen3b.jpg"",""time"":5605\},\{""stimulus"":""img/screen3c.jpg"",""time"":6405\},\{""stimulus"":""img/screen3d.jpg"",""time"":7201\},\{""stimulus"":""img/screen4a.jpg"",""time"":8007\},\{""stimulus"":""img/screen4a.jpg"",""time"":8805\},\{""stimulus"":""img/screen4b.jpg"",""time"":9606\},\{""stimulus"":""img/screen4c.jpg"",""time"":10405\},\{""stimulus"":""img/screen4d.jpg"",""time"":11201\},\{""stimulus"":""img/screen4d.jpg"",""time"":12005\},\{""stimulus"":""img/screen5a.jpg"",""time"":12804\},\{""stimulus"":""img/screen5b1.jpg"",""time"":13607\},\{""stimulus"":""img/screen5b2.jpg"",""time"":14406\},\{""stimulus"":""img/screen5b3.jpg"",""time"":15201\},\{""stimulus"":""img/screen5b4.jpg"",""time"":16005\},\{""stimulus"":""img/screen5b5.jpg"",""time"":16805\},\{""stimulus"":""img/screen5b6.jpg"",""time"":17605\},\{""stimulus"":""img/screen5c.jpg"",""time"":18406\},\{""stimulus"":""img/screen5d.jpg"",""time"":19201\},\{""stimulus"":""img/screen5d.jpg"",""time"":20007\}]",[],,,,3378,<img src='img/screen5e.jpg'></img>,0,html-button-response,4,76890,0.0-4.0,static,"1,2,3,6",I007,,8,2/2/11,"April 6 , 2019",,C668306,,,,,,11528,<p align='center'></p>,0,html-button-response,5,88425,0.0-5.0,static,"1,2,3,6",I007,,8,2/2/11,"April 6 , 2019",,C668306,,,,,,4981,,2,html-button-response,6,93416,0.0-6.0-0.0,static,"1,2,3,6",I007,,8,2/2/11,"April 6 , 2019",,C668306,,,,,,null,sound/3star.wav,,audio-keyboard-response,7,94931,0.0-6.0-1.0,static,"1,2,3,6",I007,,8,2/2/11,"April 6 , 2019",,C668306,,,null,3,3,2423,,0,html-button-response,8,97366,0.0-6.0-0.1,static,"1,2,3,6",I007,,8,2/2/11,"April 6 , 2019",,C668306,,,,,,null,sound/1star.wav,,audio-keyboard-response,9,98870,0.0-6.0-1.1,static,"1,2,3,6",I007,,8,2/2/11,"April 6 , 2019",,C668306,,,null,1,4,1582,,3,html-button-response,10,100459,0.0-6.0-0.2,static,"1,2,3,6",I007,,8,2/2/11,"April 6 , 2019",,C668306,,,,,,null,sound/6star.wav,,audio-keyboard-response,11,101966,0.0-6.0-1.2,static,"1,2,3,6",I007,,8,2/2/11,"April 6 , 2019",,C668306,,,null,6,10,1500,,1,html-button-response,12,103475,0.0-6.0-0.3,static,"1,2,3,6",I007,,8,2/2/11,"April 6 , 2019",,C668306,,,,,,null,sound/2star.wav,,audio-keyboard-response,13,104980,0.0-6.0-1.3,static,"1,2,3,6",I007,,8,2/2/11,"April 6 , 2019",,C668306,,,null,2,12,2774,,2,html-button-response,14,107766,0.0-6.0-0.4,static,"1,2,3,6",I007,,8,2/2/11,"April 6 , 2019",,C668306,,,,,,null,sound/3star.wav,,audio-keyboard-response,15,109273,0.0-6.0-1.4,static,"1,2,3,6",I007,,8,2/2/11,"April 6 , 2019",,C668306,,,null,3,15,1291,,0,html-button-response,16,110572,0.0-6.0-0.5,static,"1,2,3,6",I007,,8,2/2/11,"April 6 , 2019",,C668306,,,,,,null,sound/1star.wav,,audio-keyboard-response,17,112078,0.0-6.0-1.5,static,"1,2,3,6",I007,,8,2/2/11,"April 6 , 2019",,C668306,,,null,1,16,1434,,1,html-button-response,18,113524,0.0-6.0-0.6,static,"1,2,3,6",I007,,8,2/2/11,"April 6 , 2019",,C668306,,,,,,null,sound/2star.wav,,audio-keyboard-response,19,115030,0.0-6.0-1.6,static,"1,2,3,6",I007,,8,2/2/11,"April 6 , 2019",,C668306,,,null,2,18,1199,,3,html-button-response,20,116237,0.0-6.0-0.7,static,"1,2,3,6",I007,,8,2/2/11,"April 6 , 2019",,C668306,,,,,,null,sound/6star.wav,,audio-keyboard-response,21,117741,0.0-6.0-1.7,static,"1,2,3,6",I007,,8,2/2/11,"April 6 , 2019",,C668306,,,null,6,24,2097,,0,html-button-response,22,119851,0.0-6.0-0.8,static,"1,2,3,6",I007,,8,2/2/11,"April 6 , 2019",,C668306,,,,,,null,sound/1star.wav,,audio-keyboard-response,23,121363,0.0-6.0-1.8,static,"1,2,3,6",I007,,8,2/2/11,"April 6 , 2019",,C668306,,,null,1,25,815,,1,html-button-response,24,122184,0.0-6.0-0.9,static,"1,2,3,6",I007,,8,2/2/11,"April 6 , 2019",,C668306,,,,,,null,sound/2star.wav,,audio-keyboard-response,25,123691,0.0-6.0-1.9,static,"1,2,3,6",I007,,8,2/2/11,"April 6 , 2019",,C668306,,,null,2,27,832,,3,html-button-response,26,124531,0.0-6.0-0.10,static,"1,2,3,6",I007,,8,2/2/11,"April 6 , 2019",,C668306,,,,,,null,sound/6star.wav,,audio-keyboard-response,27,126037,0.0-6.0-1.10,static,"1,2,3,6",I007,,8,2/2/11,"April 6 , 2019",,C668306,,,null,6,33,983,,2,html-button-response,28,127029,0.0-6.0-0.11,static,"1,2,3,6",I007,,8,2/2/11,"April 6 , 2019",,C668306,,,,,,null,sound/3star.wav,,audio-keyboard-response,29,128535,0.0-6.0-1.11,static,"1,2,3,6",I007,,8,2/2/11,"April 6 , 2019",,C668306,,,null,3,36,1005,,0,html-button-response,30,129546,0.0-6.0-0.12,static,"1,2,3,6",I007,,8,2/2/11,"April 6 , 2019",,C668306,,,,,,null,sound/1star.wav,,audio-keyboard-response,31,131052,0.0-6.0-1.12,static,"1,2,3,6",I007,,8,2/2/11,"April 6 , 2019",,C668306,,,null,1,37,1767,,2,html-button-response,32,132829,0.0-6.0-0.13,static,"1,2,3,6",I007,,8,2/2/11,"April 6 , 2019",,C668306,,,,,,null,sound/3star.wav,,audio-keyboard-response,33,134335,0.0-6.0-1.13,static,"1,2,3,6",I007,,8,2/2/11,"April 6 , 2019",,C668306,,,null,3,40,2557,,1,html-button-response,34,136903,0.0-6.0-0.14,static,"1,2,3,6",I007,,8,2/2/11,"April 6 , 2019",,C668306,,,,,,null,sound/2star.wav,,audio-keyboard-response,35,138409,0.0-6.0-1.14,static,"1,2,3,6",I007,,8,2/2/11,"April 6 , 2019",,C668306,,,null,2,42,1100,,3,html-button-response,36,139519,0.0-6.0-0.15,static,"1,2,3,6",I007,,8,2/2/11,"April 6 , 2019",,C668306,,,,,,null,sound/6star.wav,,audio-keyboard-response,37,141026,0.0-6.0-1.15,static,"1,2,3,6",I007,,8,2/2/11,"April 6 , 2019",,C668306,,,null,6,48,1329,,0,html-button-response,38,142365,0.0-6.0-0.16,static,"1,2,3,6",I007,,8,2/2/11,"April 6 , 2019",,C668306,,,,,,null,sound/1star.wav,,audio-keyboard-response,39,143872,0.0-6.0-1.16,static,"1,2,3,6",I007,,8,2/2/11,"April 6 , 2019",,C668306,,,null,1,49,1293,,1,html-button-response,40,145171,0.0-6.0-0.17,static,"1,2,3,6",I007,,8,2/2/11,"April 6 , 2019",,C668306,,,,,,null,sound/2star.wav,,audio-keyboard-response,41,146680,0.0-6.0-1.17,static,"1,2,3,6",I007,,8,2/2/11,"April 6 , 2019",,C668306,,,null,2,51,985,,3,html-button-response,42,147679,0.0-6.0-0.18,static,"1,2,3,6",I007,,8,2/2/11,"April 6 , 2019",,C668306,,,,,,null,sound/6star.wav,,audio-keyboard-response,43,149185,0.0-6.0-1.18,static,"1,2,3,6",I007,,8,2/2/11,"April 6 , 2019",,C668306,,,null,6,57,1243,,3,html-button-response,44,150438,0.0-6.0-0.19,static,"1,2,3,6",I007,,8,2/2/11,"April 6 , 2019",,C668306,,,,,,null,sound/6star.wav,,audio-keyboard-response,45,151947,0.0-6.0-1.19,static,"1,2,3,6",I007,,8,2/2/11,"April 6 , 2019",,C668306,,,null,6,63,1088,,1,html-button-response,46,153042,0.0-6.0-0.20,static,"1,2,3,6",I007,,8,2/2/11,"April 6 , 2019",,C668306,,,,,,null,sound/2star.wav,,audio-keyboard-response,47,154546,0.0-6.0-1.20,static,"1,2,3,6",I007,,8,2/2/11,"April 6 , 2019",,C668306,,,null,2,65,1032,,3,html-button-response,48,155587,0.0-6.0-0.21,static,"1,2,3,6",I007,,8,2/2/11,"April 6 , 2019",,C668306,,,,,,null,sound/6star.wav,,audio-keyboard-response,49,157090,0.0-6.0-1.21,static,"1,2,3,6",I007,,8,2/2/11,"April 6 , 2019",,C668306,,,null,6,71,1236,,2,html-button-response,50,158333,0.0-6.0-0.22,static,"1,2,3,6",I007,,8,2/2/11,"April 6 , 2019",,C668306,,,,,,null,sound/3star.wav,,audio-keyboard-response,51,159839,0.0-6.0-1.22,static,"1,2,3,6",I007,,8,2/2/11,"April 6 , 2019",,C668306,,,null,3,74,1353,,0,html-button-response,52,161200,0.0-6.0-0.23,static,"1,2,3,6",I007,,8,2/2/11,"April 6 , 2019",,C668306,,,,,,null,sound/1star.wav,,audio-keyboard-response,53,162707,0.0-6.0-1.23,static,"1,2,3,6",I007,,8,2/2/11,"April 6 , 2019",,C668306,,,null,1,75,1681,,1,html-button-response,54,164397,0.0-6.0-0.24,static,"1,2,3,6",I007,,8,2/2/11,"April 6 , 2019",,C668306,,,,,,null,sound/2star.wav,,audio-keyboard-response,55,165902,0.0-6.0-1.24,static,"1,2,3,6",I007,,8,2/2/11,"April 6 , 2019",,C668306,,,null,2,77,1325,,3,html-button-response,56,167237,0.0-6.0-0.25,static,"1,2,3,6",I007,,8,2/2/11,"April 6 , 2019",,C668306,,,,,,null,sound/6star.wav,,audio-keyboard-response,57,168750,0.0-6.0-1.25,static,"1,2,3,6",I007,,8,2/2/11,"April 6 , 2019",,C668306,,,null,6,83,11317,,3,html-button-response,58,180077,0.0-6.0-0.26,static,"1,2,3,6",I007,,8,2/2/11,"April 6 , 2019",,C668306,,,,,,null,sound/6star.wav,,audio-keyboard-response,59,181584,0.0-6.0-1.26,static,"1,2,3,6",I007,,8,2/2/11,"April 6 , 2019",,C668306,,,null,6,89,1454,,3,html-button-response,60,183048,0.0-6.0-0.27,static,"1,2,3,6",I007,,8,2/2/11,"April 6 , 2019",,C668306,,,,,,null,sound/6star.wav,,audio-keyboard-response,61,184552,0.0-6.0-1.27,static,"1,2,3,6",I007,,8,2/2/11,"April 6 , 2019",,C668306,,,null,6,95,1124,,1,html-button-response,62,185685,0.0-6.0-0.28,static,"1,2,3,6",I007,,8,2/2/11,"April 6 , 2019",,C668306,,,,,,null,sound/2star.wav,,audio-keyboard-response,63,187192,0.0-6.0-1.28,static,"1,2,3,6",I007,,8,2/2/11,"April 6 , 2019",,C668306,,,null,2,97,1025,,0,html-button-response,64,188226,0.0-6.0-0.29,static,"1,2,3,6",I007,,8,2/2/11,"April 6 , 2019",,C668306,,,,,,null,sound/1star.wav,,audio-keyboard-response,65,189774,0.0-6.0-1.29,static,"1,2,3,6",I007,,8,2/2/11,"April 6 , 2019",,C668306,,,null,1,98,1160,,2,html-button-response,66,190939,0.0-6.0-0.30,static,"1,2,3,6",I007,,8,2/2/11,"April 6 , 2019",,C668306,,,,,,null,sound/3star.wav,,audio-keyboard-response,67,192445,0.0-6.0-1.30,static,"1,2,3,6",I007,,8,2/2/11,"April 6 , 2019",,C668306,,,null,3,101,882,,3,html-button-response,68,193335,0.0-6.0-0.31,static,"1,2,3,6",I007,,8,2/2/11,"April 6 , 2019",,C668306,,,,,,null,sound/6star.wav,,audio-keyboard-response,69,194840,0.0-6.0-1.31,static,"1,2,3,6",I007,,8,2/2/11,"April 6 , 2019",,C668306,,,null,6,107,1262,,0,html-button-response,70,196114,0.0-6.0-0.32,static,"1,2,3,6",I007,,8,2/2/11,"April 6 , 2019",,C668306,,,,,,null,sound/1star.wav,,audio-keyboard-response,71,197619,0.0-6.0-1.32,static,"1,2,3,6",I007,,8,2/2/11,"April 6 , 2019",,C668306,,,null,1,108,936,,1,html-button-response,72,198561,0.0-6.0-0.33,static,"1,2,3,6",I007,,8,2/2/11,"April 6 , 2019",,C668306,,,,,,null,sound/2star.wav,,audio-keyboard-response,73,200068,0.0-6.0-1.33,static,"1,2,3,6",I007,,8,2/2/11,"April 6 , 2019",,C668306,,,null,2,110,1181,,2,html-button-response,74,201261,0.0-6.0-0.34,static,"1,2,3,6",I007,,8,2/2/11,"April 6 , 2019",,C668306,,,,,,null,sound/3star.wav,,audio-keyboard-response,75,202765,0.0-6.0-1.34,static,"1,2,3,6",I007,,8,2/2/11,"April 6 , 2019",,C668306,,,null,3,113,869,,3,html-button-response,76,203646,0.0-6.0-0.35,static,"1,2,3,6",I007,,8,2/2/11,"April 6 , 2019",,C668306,,,,,,null,sound/6star.wav,,audio-keyboard-response,77,205150,0.0-6.0-1.35,static,"1,2,3,6",I007,,8,2/2/11,"April 6 , 2019",,C668306,,,null,6,119,1204,,0,html-button-response,78,206366,0.0-6.0-0.36,static,"1,2,3,6",I007,,8,2/2/11,"April 6 , 2019",,C668306,,,,,,null,sound/1star.wav,,audio-keyboard-response,79,207880,0.0-6.0-1.36,static,"1,2,3,6",I007,,8,2/2/11,"April 6 , 2019",,C668306,,,null,1,120,721,,1,html-button-response,80,208613,0.0-6.0-0.37,static,"1,2,3,6",I007,,8,2/2/11,"April 6 , 2019",,C668306,,,,,,null,sound/2star.wav,,audio-keyboard-response,81,210123,0.0-6.0-1.37,static,"1,2,3,6",I007,,8,2/2/11,"April 6 , 2019",,C668306,,,null,2,122,1030,,3,html-button-response,82,211167,0.0-6.0-0.38,static,"1,2,3,6",I007,,8,2/2/11,"April 6 , 2019",,C668306,,,,,,null,sound/6star.wav,,audio-keyboard-response,83,212670,0.0-6.0-1.38,static,"1,2,3,6",I007,,8,2/2/11,"April 6 , 2019",,C668306,,,null,6,128,1152,,2,html-button-response,84,213835,0.0-6.0-0.39,static,"1,2,3,6",I007,,8,2/2/11,"April 6 , 2019",,C668306,,,,,,null,sound/3star.wav,,audio-keyboard-response,85,215342,0.0-6.0-1.39,static,"1,2,3,6",I007,,8,2/2/11,"April 6 , 2019",,C668306,,,null,3,131,1004,,3,html-button-response,86,216352,0.0-7.0-0.0,static,"1,2,3,6",I007,,8,2/2/11,"April 6 , 2019",,C668306,,,,,,null,sound/6star.wav,,audio-keyboard-response,87,217868,0.0-7.0-1.0,static,"1,2,3,6",I007,,8,2/2/11,"April 6 , 2019",,C668306,,,null,6,137,965,,1,html-button-response,88,218850,0.0-7.0-0.1,static,"1,2,3,6",I007,,8,2/2/11,"April 6 , 2019",,C668306,,,,,,null,sound/2star.wav,,audio-keyboard-response,89,220352,0.0-7.0-1.1,static,"1,2,3,6",I007,,8,2/2/11,"April 6 , 2019",,C668306,,,null,2,139,1121,,0,html-button-response,90,221479,0.0-7.0-0.2,static,"1,2,3,6",I007,,8,2/2/11,"April 6 , 2019",,C668306,,,,,,null,sound/1star.wav,,audio-keyboard-response,91,222985,0.0-7.0-1.2,static,"1,2,3,6",I007,,8,2/2/11,"April 6 , 2019",,C668306,,,null,1,140,959,,1,html-button-response,92,223955,0.0-7.0-0.3,static,"1,2,3,6",I007,,8,2/2/11,"April 6 , 2019",,C668306,,,,,,null,sound/2star.wav,,audio-keyboard-response,93,225460,0.0-7.0-1.3,static,"1,2,3,6",I007,,8,2/2/11,"April 6 , 2019",,C668306,,,null,2,142,994,,3,html-button-response,94,226463,0.0-7.0-0.4,static,"1,2,3,6",I007,,8,2/2/11,"April 6 , 2019",,C668306,,,,,,null,sound/6star.wav,,audio-keyboard-response,95,227968,0.0-7.0-1.4,static,"1,2,3,6",I007,,8,2/2/11,"April 6 , 2019",,C668306,,,null,6,148,1180,,2,html-button-response,96,229157,0.0-7.0-0.5,static,"1,2,3,6",I007,,8,2/2/11,"April 6 , 2019",,C668306,,,,,,null,sound/3star.wav,,audio-keyboard-response,97,230664,0.0-7.0-1.5,static,"1,2,3,6",I007,,8,2/2/11,"April 6 , 2019",,C668306,,,null,3,151,1015,,3,html-button-response,98,231688,0.0-7.0-0.6,static,"1,2,3,6",I007,,8,2/2/11,"April 6 , 2019",,C668306,,,,,,null,sound/6star.wav,,audio-keyboard-response,99,233191,0.0-7.0-1.6,static,"1,2,3,6",I007,,8,2/2/11,"April 6 , 2019",,C668306,,,null,6,157,1326,,1,html-button-response,100,234527,0.0-7.0-0.7,static,"1,2,3,6",I007,,8,2/2/11,"April 6 , 2019",,C668306,,,,,,null,sound/2star.wav,,audio-keyboard-response,101,236035,0.0-7.0-1.7,static,"1,2,3,6",I007,,8,2/2/11,"April 6 , 2019",,C668306,,,null,2,159,9804,,3,html-button-response,102,245847,0.0-7.0-0.8,static,"1,2,3,6",I007,,8,2/2/11,"April 6 , 2019",,C668306,,,,,,null,sound/6star.wav,,audio-keyboard-response,103,247350,0.0-7.0-1.8,static,"1,2,3,6",I007,,8,2/2/11,"April 6 , 2019",,C668306,,,null,6,165,1229,,2,html-button-response,104,248588,0.0-7.0-0.9,static,"1,2,3,6",I007,,8,2/2/11,"April 6 , 2019",,C668306,,,,,,null,sound/3star.wav,,audio-keyboard-response,105,250091,0.0-7.0-1.9,static,"1,2,3,6",I007,,8,2/2/11,"April 6 , 2019",,C668306,,,null,3,168,1154,,1,html-button-response,106,251250,0.0-7.0-0.10,static,"1,2,3,6",I007,,8,2/2/11,"April 6 , 2019",,C668306,,,,,,null,sound/2star.wav,,audio-keyboard-response,107,252755,0.0-7.0-1.10,static,"1,2,3,6",I007,,8,2/2/11,"April 6 , 2019",,C668306,,,null,2,170,1135,,0,html-button-response,108,253900,0.0-7.0-0.11,static,"1,2,3,6",I007,,8,2/2/11,"April 6 , 2019",,C668306,,,,,,null,sound/1star.wav,,audio-keyboard-response,109,255406,0.0-7.0-1.11,static,"1,2,3,6",I007,,8,2/2/11,"April 6 , 2019",,C668306,,,null,1,171,1005,,3,html-button-response,110,256418,0.0-7.0-0.12,static,"1,2,3,6",I007,,8,2/2/11,"April 6 , 2019",,C668306,,,,,,null,sound/6star.wav,,audio-keyboard-response,111,257921,0.0-7.0-1.12,static,"1,2,3,6",I007,,8,2/2/11,"April 6 , 2019",,C668306,,,null,6,177,1908,,1,html-button-response,112,259839,0.0-7.0-0.13,static,"1,2,3,6",I007,,8,2/2/11,"April 6 , 2019",,C668306,,,,,,null,sound/2star.wav,,audio-keyboard-response,113,261341,0.0-7.0-1.13,static,"1,2,3,6",I007,,8,2/2/11,"April 6 , 2019",,C668306,,,null,2,179,1047,,2,html-button-response,114,262395,0.0-7.0-0.14,static,"1,2,3,6",I007,,8,2/2/11,"April 6 , 2019",,C668306,,,,,,null,sound/3star.wav,,audio-keyboard-response,115,263900,0.0-7.0-1.14,static,"1,2,3,6",I007,,8,2/2/11,"April 6 , 2019",,C668306,,,null,3,182,1117,,0,html-button-response,116,265035,0.0-7.0-0.15,static,"1,2,3,6",I007,,8,2/2/11,"April 6 , 2019",,C668306,,,,,,null,sound/1star.wav,,audio-keyboard-response,117,266542,0.0-7.0-1.15,static,"1,2,3,6",I007,,8,2/2/11,"April 6 , 2019",,C668306,,,null,1,183,1014,,3,html-button-response,118,267566,0.0-7.0-0.16,static,"1,2,3,6",I007,,8,2/2/11,"April 6 , 2019",,C668306,,,,,,null,sound/6star.wav,,audio-keyboard-response,119,269070,0.0-7.0-1.16,static,"1,2,3,6",I007,,8,2/2/11,"April 6 , 2019",,C668306,,,null,6,189,1918,,0,html-button-response,120,270999,0.0-7.0-0.17,static,"1,2,3,6",I007,,8,2/2/11,"April 6 , 2019",,C668306,,,,,,null,sound/1star.wav,,audio-keyboard-response,121,272510,0.0-7.0-1.17,static,"1,2,3,6",I007,,8,2/2/11,"April 6 , 2019",,C668306,,,null,1,190,882,,2,html-button-response,122,273401,0.0-7.0-0.18,static,"1,2,3,6",I007,,8,2/2/11,"April 6 , 2019",,C668306,,,,,,null,sound/3star.wav,,audio-keyboard-response,123,274907,0.0-7.0-1.18,static,"1,2,3,6",I007,,8,2/2/11,"April 6 , 2019",,C668306,,,null,3,193,987,,1,html-button-response,124,275901,0.0-7.0-0.19,static,"1,2,3,6",I007,,8,2/2/11,"April 6 , 2019",,C668306,,,,,,null,sound/2star.wav,,audio-keyboard-response,125,277404,0.0-7.0-1.19,static,"1,2,3,6",I007,,8,2/2/11,"April 6 , 2019",,C668306,,,null,2,195,975,,3,html-button-response,126,278390,0.0-7.0-0.20,static,"1,2,3,6",I007,,8,2/2/11,"April 6 , 2019",,C668306,,,,,,null,sound/6star.wav,,audio-keyboard-response,127,279895,0.0-7.0-1.20,static,"1,2,3,6",I007,,8,2/2/11,"April 6 , 2019",,C668306,,,null,6,201,1374,,1,html-button-response,128,281279,0.0-7.0-0.21,static,"1,2,3,6",I007,,8,2/2/11,"April 6 , 2019",,C668306,,,,,,null,sound/2star.wav,,audio-keyboard-response,129,282783,0.0-7.0-1.21,static,"1,2,3,6",I007,,8,2/2/11,"April 6 , 2019",,C668306,,,null,2,203,1064,,2,html-button-response,130,283856,0.0-7.0-0.22,static,"1,2,3,6",I007,,8,2/2/11,"April 6 , 2019",,C668306,,,,,,null,sound/3star.wav,,audio-keyboard-response,131,285361,0.0-7.0-1.22,static,"1,2,3,6",I007,,8,2/2/11,"April 6 , 2019",,C668306,,,null,3,206,936,,0,html-button-response,132,286304,0.0-7.0-0.23,static,"1,2,3,6",I007,,8,2/2/11,"April 6 , 2019",,C668306,,,,,,null,sound/1star.wav,,audio-keyboard-response,133,287808,0.0-7.0-1.23,static,"1,2,3,6",I007,,8,2/2/11,"April 6 , 2019",,C668306,,,null,1,207,993,,3,html-button-response,134,288811,0.0-7.0-0.24,static,"1,2,3,6",I007,,8,2/2/11,"April 6 , 2019",,C668306,,,,,,null,sound/6star.wav,,audio-keyboard-response,135,290314,0.0-7.0-1.24,static,"1,2,3,6",I007,,8,2/2/11,"April 6 , 2019",,C668306,,,null,6,213,1152,,1,html-button-response,136,291475,0.0-7.0-0.25,static,"1,2,3,6",I007,,8,2/2/11,"April 6 , 2019",,C668306,,,,,,null,sound/2star.wav,,audio-keyboard-response,137,292982,0.0-7.0-1.25,static,"1,2,3,6",I007,,8,2/2/11,"April 6 , 2019",,C668306,,,null,2,215,1569,,3,html-button-response,138,294559,0.0-7.0-0.26,static,"1,2,3,6",I007,,8,2/2/11,"April 6 , 2019",,C668306,,,,,,null,sound/6star.wav,,audio-keyboard-response,139,296071,0.0-7.0-1.26,static,"1,2,3,6",I007,,8,2/2/11,"April 6 , 2019",,C668306,,,null,6,221,1253,,1,html-button-response,140,297334,0.0-7.0-0.27,static,"1,2,3,6",I007,,8,2/2/11,"April 6 , 2019",,C668306,,,,,,null,sound/2star.wav,,audio-keyboard-response,141,298838,0.0-7.0-1.27,static,"1,2,3,6",I007,,8,2/2/11,"April 6 , 2019",,C668306,,,null,2,223,1157,,2,html-button-response,142,300005,0.0-7.0-0.28,static,"1,2,3,6",I007,,8,2/2/11,"April 6 , 2019",,C668306,,,,,,null,sound/3star.wav,,audio-keyboard-response,143,301510,0.0-7.0-1.28,static,"1,2,3,6",I007,,8,2/2/11,"April 6 , 2019",,C668306,,,null,3,226,1627,,3,html-button-response,144,303145,0.0-7.0-0.29,static,"1,2,3,6",I007,,8,2/2/11,"April 6 , 2019",,C668306,,,,,,null,sound/6star.wav,,audio-keyboard-response,145,304663,0.0-7.0-1.29,static,"1,2,3,6",I007,,8,2/2/11,"April 6 , 2019",,C668306,,,null,6,232,1065,,1,html-button-response,146,305739,0.0-7.0-0.30,static,"1,2,3,6",I007,,8,2/2/11,"April 6 , 2019",,C668306,,,,,,null,sound/2star.wav,,audio-keyboard-response,147,307243,0.0-7.0-1.30,static,"1,2,3,6",I007,,8,2/2/11,"April 6 , 2019",,C668306,,,null,2,234,1130,,2,html-button-response,148,308384,0.0-7.0-0.31,static,"1,2,3,6",I007,,8,2/2/11,"April 6 , 2019",,C668306,,,,,,null,sound/3star.wav,,audio-keyboard-response,149,309889,0.0-7.0-1.31,static,"1,2,3,6",I007,,8,2/2/11,"April 6 , 2019",,C668306,,,null,3,237,1458,,0,html-button-response,150,311354,0.0-7.0-0.32,static,"1,2,3,6",I007,,8,2/2/11,"April 6 , 2019",,C668306,,,,,,null,sound/1star.wav,,audio-keyboard-response,151,312862,0.0-7.0-1.32,static,"1,2,3,6",I007,,8,2/2/11,"April 6 , 2019",,C668306,,,null,1,238,7826,,3,html-button-response,152,320698,0.0-7.0-0.33,static,"1,2,3,6",I007,,8,2/2/11,"April 6 , 2019",,C668306,,,,,,null,sound/6star.wav,,audio-keyboard-response,153,322202,0.0-7.0-1.33,static,"1,2,3,6",I007,,8,2/2/11,"April 6 , 2019",,C668306,,,null,6,244,1153,,1,html-button-response,154,323361,0.0-7.0-0.34,static,"1,2,3,6",I007,,8,2/2/11,"April 6 , 2019",,C668306,,,,,,null,sound/2star.wav,,audio-keyboard-response,155,324865,0.0-7.0-1.34,static,"1,2,3,6",I007,,8,2/2/11,"April 6 , 2019",,C668306,,,null,2,246,970,,2,html-button-response,156,325845,0.0-7.0-0.35,static,"1,2,3,6",I007,,8,2/2/11,"April 6 , 2019",,C668306,,,,,,null,sound/3star.wav,,audio-keyboard-response,157,327350,0.0-7.0-1.35,static,"1,2,3,6",I007,,8,2/2/11,"April 6 , 2019",,C668306,,,null,3,249,1272,,0,html-button-response,158,328631,0.0-7.0-0.36,static,"1,2,3,6",I007,,8,2/2/11,"April 6 , 2019",,C668306,,,,,,null,sound/1star.wav,,audio-keyboard-response,159,330137,0.0-7.0-1.36,static,"1,2,3,6",I007,,8,2/2/11,"April 6 , 2019",,C668306,,,null,1,250,1355,,0,html-button-response,160,331503,0.0-7.0-0.37,static,"1,2,3,6",I007,,8,2/2/11,"April 6 , 2019",,C668306,,,,,,null,sound/1star.wav,,audio-keyboard-response,161,333009,0.0-7.0-1.37,static,"1,2,3,6",I007,,8,2/2/11,"April 6 , 2019",,C668306,,,null,1,251,799,,1,html-button-response,162,333818,0.0-7.0-0.38,static,"1,2,3,6",I007,,8,2/2/11,"April 6 , 2019",,C668306,,,,,,null,sound/2star.wav,,audio-keyboard-response,163,335322,0.0-7.0-1.38,static,"1,2,3,6",I007,,8,2/2/11,"April 6 , 2019",,C668306,,,null,2,253,1319,,2,html-button-response,164,336647,0.0-7.0-0.39,static,"1,2,3,6",I007,,8,2/2/11,"April 6 , 2019",,C668306,,,,,,null,sound/3star.wav,,audio-keyboard-response,165,338151,0.0-7.0-1.39,static,"1,2,3,6",I007,,8,2/2/11,"April 6 , 2019",,C668306,,,null,3,256,14736,sound/celebration.wav,0,audio-button-response,166,352893,0.0-8.0,static,"1,2,3,6",I007,,8,2/2/11,"April 6 , 2019",,C668306,,,,,,24365,"Which, if any, of these monsters ever gave you <b>1 star</b>?</p>",0,html-button-response,167,377265,0.0-9.0-0.0,static,"1,2,3,6",I007,,8,2/2/11,"April 6 , 2019",,C668306,,,,,,correct4613,"Which, if any, of these monsters ever gave you <b>2 stars</b>?</p>",1,html-button-response,168,382688,0.0-10.0-0.0,static,"1,2,3,6",I007,,8,2/2/11,"April 6 , 2019",,C668306,,,,,,correct4349,"Which, if any, of these monsters ever gave you <b>3 stars</b>?</p>",2,html-button-response,169,387848,0.0-11.0-0.0,static,"1,2,3,6",I007,,8,2/2/11,"April 6 , 2019",,C668306,,,,,,correct6060,"Which, if any, of these monsters ever gave you <b>6 stars</b>?</p>",3,html-button-response,170,394919,0.0-12.0-0.0,static,"1,2,3,6",I007,,8,2/2/11,"April 6 , 2019",,C668306,,,,,,correct4087,"Which, if any, of these monsters ever gave you <b>8 stars</b>?</p>",4,html-button-response,171,399821,0.0-13.0-0.0,static,"1,2,3,6",I007,,8,2/2/11,"April 6 , 2019",,C668306,,,,,,correct5041,Which monster did you like the most?</p>,3,html-button-response,172,405672,0.0-14.0-0.0,static,"1,2,3,6",I007,,8,2/2/11,"April 6 , 2019",,C668306,,,,,,22861,,,survey-text,173,429356,0.0-15.0,static,"1,2,3,6",I007,,8,2/2/11,"April 6 , 2019",,C668306,,"\{""Q0"":""Gave most stars""\}",,,,rt,stimulus,button_pressed,trial_type,trial_index,time_elapsed,internal_node_id,condition,pointvals_firsthalf,subjID,gender,age,dob,dot,language,turkID,animation_sequence,responses,key_press,earnedThis,earnedCumulative,posttest29660,,0,html-button-response,0,29716,0.0-0.0,dynamic,"2,3,1,6",S017,F,6,,4/10/19,English,C179203,,,,,,,,,animation,1,41740,0.0-1.0,dynamic,"2,3,1,6",S017,F,6,,4/10/19,English,C179203,"[\{""stimulus"":""img/screen1a.png"",""time"":3003\},\{""stimulus"":""img/screen1b.png"",""time"":6003\},\{""stimulus"":""img/screen1c.png"",""time"":9005\}]",[],,,,7164,<img src='img/screen1d.png'></img>,0,html-button-response,2,48909,0.0-2.0,dynamic,"2,3,1,6",S017,F,6,,4/10/19,English,C179203,,,,,,,,,animation,3,69748,0.0-3.0,dynamic,"2,3,1,6",S017,F,6,,4/10/19,English,C179203,"[\{""stimulus"":""img/screen2.jpg"",""time"":804\},\{""stimulus"":""img/screen2.jpg"",""time"":1605\},\{""stimulus"":""img/screen2.jpg"",""time"":2407\},\{""stimulus"":""img/screen2.jpg"",""time"":3208\},\{""stimulus"":""img/screen2.jpg"",""time"":4009\},\{""stimulus"":""img/screen3a.jpg"",""time"":4811\},\{""stimulus"":""img/screen3b.jpg"",""time"":5611\},\{""stimulus"":""img/screen3c.jpg"",""time"":6413\},\{""stimulus"":""img/screen3d.jpg"",""time"":7214\},\{""stimulus"":""img/screen4a.jpg"",""time"":8015\},\{""stimulus"":""img/screen4a.jpg"",""time"":8816\},\{""stimulus"":""img/screen4b.jpg"",""time"":9618\},\{""stimulus"":""img/screen4c.jpg"",""time"":10419\},\{""stimulus"":""img/screen4d.jpg"",""time"":11220\},\{""stimulus"":""img/screen4d.jpg"",""time"":12023\},\{""stimulus"":""img/screen5a.jpg"",""time"":12824\},\{""stimulus"":""img/screen5b1.jpg"",""time"":13625\},\{""stimulus"":""img/screen5b2.jpg"",""time"":14427\},\{""stimulus"":""img/screen5b3.jpg"",""time"":15228\},\{""stimulus"":""img/screen5b4.jpg"",""time"":16029\},\{""stimulus"":""img/screen5b5.jpg"",""time"":16830\},\{""stimulus"":""img/screen5b6.jpg"",""time"":17631\},\{""stimulus"":""img/screen5c.jpg"",""time"":18434\},\{""stimulus"":""img/screen5d.jpg"",""time"":19234\},\{""stimulus"":""img/screen5d.jpg"",""time"":20034\}]",[],,,,19491,<img src='img/screen5e.jpg'></img>,0,html-button-response,4,89243,0.0-4.0,dynamic,"2,3,1,6",S017,F,6,,4/10/19,English,C179203,,,,,,40993,<p align='center'></p>,0,html-button-response,5,130246,0.0-5.0,dynamic,"2,3,1,6",S017,F,6,,4/10/19,English,C179203,,,,,,13493,,2,html-button-response,6,143746,0.0-6.0-0.0,dynamic,"2,3,1,6",S017,F,6,,4/10/19,English,C179203,,,,,,null,sound/1star.wav,,audio-keyboard-response,7,145708,0.0-6.0-1.0,dynamic,"2,3,1,6",S017,F,6,,4/10/19,English,C179203,,,null,1,1,11738,,3,html-button-response,8,157455,0.0-6.0-0.1,dynamic,"2,3,1,6",S017,F,6,,4/10/19,English,C179203,,,,,,null,sound/6star.wav,,audio-keyboard-response,9,158959,0.0-6.0-1.1,dynamic,"2,3,1,6",S017,F,6,,4/10/19,English,C179203,,,null,6,7,3409,,0,html-button-response,10,162372,0.0-6.0-0.2,dynamic,"2,3,1,6",S017,F,6,,4/10/19,English,C179203,,,,,,null,sound/2star.wav,,audio-keyboard-response,11,163880,0.0-6.0-1.2,dynamic,"2,3,1,6",S017,F,6,,4/10/19,English,C179203,,,null,2,9,1490,,1,html-button-response,12,165376,0.0-6.0-0.3,dynamic,"2,3,1,6",S017,F,6,,4/10/19,English,C179203,,,,,,null,sound/3star.wav,,audio-keyboard-response,13,166884,0.0-6.0-1.3,dynamic,"2,3,1,6",S017,F,6,,4/10/19,English,C179203,,,null,3,12,5207,,2,html-button-response,14,172099,0.0-6.0-0.4,dynamic,"2,3,1,6",S017,F,6,,4/10/19,English,C179203,,,,,,null,sound/1star.wav,,audio-keyboard-response,15,173605,0.0-6.0-1.4,dynamic,"2,3,1,6",S017,F,6,,4/10/19,English,C179203,,,null,1,13,1481,,0,html-button-response,16,175087,0.0-6.0-0.5,dynamic,"2,3,1,6",S017,F,6,,4/10/19,English,C179203,,,,,,null,sound/2star.wav,,audio-keyboard-response,17,176593,0.0-6.0-1.5,dynamic,"2,3,1,6",S017,F,6,,4/10/19,English,C179203,,,null,2,15,1582,,1,html-button-response,18,178181,0.0-6.0-0.6,dynamic,"2,3,1,6",S017,F,6,,4/10/19,English,C179203,,,,,,null,sound/3star.wav,,audio-keyboard-response,19,179687,0.0-6.0-1.6,dynamic,"2,3,1,6",S017,F,6,,4/10/19,English,C179203,,,null,3,18,2302,,3,html-button-response,20,181999,0.0-6.0-0.7,dynamic,"2,3,1,6",S017,F,6,,4/10/19,English,C179203,,,,,,null,sound/6star.wav,,audio-keyboard-response,21,183506,0.0-6.0-1.7,dynamic,"2,3,1,6",S017,F,6,,4/10/19,English,C179203,,,null,6,24,4309,,1,html-button-response,22,187821,0.0-6.0-0.8,dynamic,"2,3,1,6",S017,F,6,,4/10/19,English,C179203,,,,,,null,sound/3star.wav,,audio-keyboard-response,23,189334,0.0-6.0-1.8,dynamic,"2,3,1,6",S017,F,6,,4/10/19,English,C179203,,,null,3,27,1139,,0,html-button-response,24,190481,0.0-6.0-0.9,dynamic,"2,3,1,6",S017,F,6,,4/10/19,English,C179203,,,,,,null,sound/2star.wav,,audio-keyboard-response,25,191987,0.0-6.0-1.9,dynamic,"2,3,1,6",S017,F,6,,4/10/19,English,C179203,,,null,2,29,981,,2,html-button-response,26,192974,0.0-6.0-0.10,dynamic,"2,3,1,6",S017,F,6,,4/10/19,English,C179203,,,,,,null,sound/1star.wav,,audio-keyboard-response,27,194480,0.0-6.0-1.10,dynamic,"2,3,1,6",S017,F,6,,4/10/19,English,C179203,,,null,1,30,2491,,1,html-button-response,28,196977,0.0-6.0-0.11,dynamic,"2,3,1,6",S017,F,6,,4/10/19,English,C179203,,,,,,null,sound/3star.wav,,audio-keyboard-response,29,198482,0.0-6.0-1.11,dynamic,"2,3,1,6",S017,F,6,,4/10/19,English,C179203,,,null,3,33,807,,3,html-button-response,30,199297,0.0-6.0-0.12,dynamic,"2,3,1,6",S017,F,6,,4/10/19,English,C179203,,,,,,null,sound/6star.wav,,audio-keyboard-response,31,200803,0.0-6.0-1.12,dynamic,"2,3,1,6",S017,F,6,,4/10/19,English,C179203,,,null,6,39,848,,0,html-button-response,32,201658,0.0-6.0-0.13,dynamic,"2,3,1,6",S017,F,6,,4/10/19,English,C179203,,,,,,null,sound/2star.wav,,audio-keyboard-response,33,203165,0.0-6.0-1.13,dynamic,"2,3,1,6",S017,F,6,,4/10/19,English,C179203,,,null,2,41,744,,2,html-button-response,34,203916,0.0-6.0-0.14,dynamic,"2,3,1,6",S017,F,6,,4/10/19,English,C179203,,,,,,null,sound/1star.wav,,audio-keyboard-response,35,205422,0.0-6.0-1.14,dynamic,"2,3,1,6",S017,F,6,,4/10/19,English,C179203,,,null,1,42,837,,1,html-button-response,36,206267,0.0-6.0-0.15,dynamic,"2,3,1,6",S017,F,6,,4/10/19,English,C179203,,,,,,null,sound/3star.wav,,audio-keyboard-response,37,207776,0.0-6.0-1.15,dynamic,"2,3,1,6",S017,F,6,,4/10/19,English,C179203,,,null,3,45,2806,,2,html-button-response,38,210590,0.0-6.0-0.16,dynamic,"2,3,1,6",S017,F,6,,4/10/19,English,C179203,,,,,,null,sound/1star.wav,,audio-keyboard-response,39,212098,0.0-6.0-1.16,dynamic,"2,3,1,6",S017,F,6,,4/10/19,English,C179203,,,null,1,46,1026,,3,html-button-response,40,213133,0.0-6.0-0.17,dynamic,"2,3,1,6",S017,F,6,,4/10/19,English,C179203,,,,,,null,sound/6star.wav,,audio-keyboard-response,41,214644,0.0-6.0-1.17,dynamic,"2,3,1,6",S017,F,6,,4/10/19,English,C179203,,,null,6,52,1040,,1,html-button-response,42,215692,0.0-6.0-0.18,dynamic,"2,3,1,6",S017,F,6,,4/10/19,English,C179203,,,,,,null,sound/3star.wav,,audio-keyboard-response,43,217197,0.0-6.0-1.18,dynamic,"2,3,1,6",S017,F,6,,4/10/19,English,C179203,,,null,3,55,956,,0,html-button-response,44,218160,0.0-6.0-0.19,dynamic,"2,3,1,6",S017,F,6,,4/10/19,English,C179203,,,,,,null,sound/2star.wav,,audio-keyboard-response,45,219666,0.0-6.0-1.19,dynamic,"2,3,1,6",S017,F,6,,4/10/19,English,C179203,,,null,2,57,768,,2,html-button-response,46,220442,0.0-6.0-0.20,dynamic,"2,3,1,6",S017,F,6,,4/10/19,English,C179203,,,,,,null,sound/1star.wav,,audio-keyboard-response,47,221949,0.0-6.0-1.20,dynamic,"2,3,1,6",S017,F,6,,4/10/19,English,C179203,,,null,1,58,1043,,3,html-button-response,48,222999,0.0-6.0-0.21,dynamic,"2,3,1,6",S017,F,6,,4/10/19,English,C179203,,,,,,null,sound/6star.wav,,audio-keyboard-response,49,224509,0.0-6.0-1.21,dynamic,"2,3,1,6",S017,F,6,,4/10/19,English,C179203,,,null,6,64,1209,,1,html-button-response,50,225724,0.0-6.0-0.22,dynamic,"2,3,1,6",S017,F,6,,4/10/19,English,C179203,,,,,,null,sound/3star.wav,,audio-keyboard-response,51,227232,0.0-6.0-1.22,dynamic,"2,3,1,6",S017,F,6,,4/10/19,English,C179203,,,null,3,67,938,,0,html-button-response,52,228177,0.0-6.0-0.23,dynamic,"2,3,1,6",S017,F,6,,4/10/19,English,C179203,,,,,,null,sound/2star.wav,,audio-keyboard-response,53,229682,0.0-6.0-1.23,dynamic,"2,3,1,6",S017,F,6,,4/10/19,English,C179203,,,null,2,69,786,,2,html-button-response,54,230475,0.0-6.0-0.24,dynamic,"2,3,1,6",S017,F,6,,4/10/19,English,C179203,,,,,,null,sound/1star.wav,,audio-keyboard-response,55,231981,0.0-6.0-1.24,dynamic,"2,3,1,6",S017,F,6,,4/10/19,English,C179203,,,null,1,70,1655,,0,html-button-response,56,233643,0.0-6.0-0.25,dynamic,"2,3,1,6",S017,F,6,,4/10/19,English,C179203,,,,,,null,sound/2star.wav,,audio-keyboard-response,57,235149,0.0-6.0-1.25,dynamic,"2,3,1,6",S017,F,6,,4/10/19,English,C179203,,,null,2,72,777,,1,html-button-response,58,235934,0.0-6.0-0.26,dynamic,"2,3,1,6",S017,F,6,,4/10/19,English,C179203,,,,,,null,sound/3star.wav,,audio-keyboard-response,59,237440,0.0-6.0-1.26,dynamic,"2,3,1,6",S017,F,6,,4/10/19,English,C179203,,,null,3,75,1780,,3,html-button-response,60,239225,0.0-6.0-0.27,dynamic,"2,3,1,6",S017,F,6,,4/10/19,English,C179203,,,,,,null,sound/6star.wav,,audio-keyboard-response,61,240731,0.0-6.0-1.27,dynamic,"2,3,1,6",S017,F,6,,4/10/19,English,C179203,,,null,6,81,742,,2,html-button-response,62,241483,0.0-6.0-0.28,dynamic,"2,3,1,6",S017,F,6,,4/10/19,English,C179203,,,,,,null,sound/1star.wav,,audio-keyboard-response,63,242990,0.0-6.0-1.28,dynamic,"2,3,1,6",S017,F,6,,4/10/19,English,C179203,,,null,1,82,1513,,0,html-button-response,64,244509,0.0-6.0-0.29,dynamic,"2,3,1,6",S017,F,6,,4/10/19,English,C179203,,,,,,null,sound/2star.wav,,audio-keyboard-response,65,246014,0.0-6.0-1.29,dynamic,"2,3,1,6",S017,F,6,,4/10/19,English,C179203,,,null,2,84,1005,,1,html-button-response,66,247026,0.0-6.0-0.30,dynamic,"2,3,1,6",S017,F,6,,4/10/19,English,C179203,,,,,,null,sound/3star.wav,,audio-keyboard-response,67,248533,0.0-6.0-1.30,dynamic,"2,3,1,6",S017,F,6,,4/10/19,English,C179203,,,null,3,87,879,,3,html-button-response,68,249419,0.0-6.0-0.31,dynamic,"2,3,1,6",S017,F,6,,4/10/19,English,C179203,,,,,,null,sound/6star.wav,,audio-keyboard-response,69,250926,0.0-6.0-1.31,dynamic,"2,3,1,6",S017,F,6,,4/10/19,English,C179203,,,null,6,93,911,,2,html-button-response,70,251843,0.0-6.0-0.32,dynamic,"2,3,1,6",S017,F,6,,4/10/19,English,C179203,,,,,,null,sound/1star.wav,,audio-keyboard-response,71,253348,0.0-6.0-1.32,dynamic,"2,3,1,6",S017,F,6,,4/10/19,English,C179203,,,null,1,94,16414,,0,html-button-response,72,269769,0.0-6.0-0.33,dynamic,"2,3,1,6",S017,F,6,,4/10/19,English,C179203,,,,,,null,sound/2star.wav,,audio-keyboard-response,73,271274,0.0-6.0-1.33,dynamic,"2,3,1,6",S017,F,6,,4/10/19,English,C179203,,,null,2,96,1759,,1,html-button-response,74,273042,0.0-6.0-0.34,dynamic,"2,3,1,6",S017,F,6,,4/10/19,English,C179203,,,,,,null,sound/3star.wav,,audio-keyboard-response,75,274548,0.0-6.0-1.34,dynamic,"2,3,1,6",S017,F,6,,4/10/19,English,C179203,,,null,3,99,1097,,2,html-button-response,76,275651,0.0-6.0-0.35,dynamic,"2,3,1,6",S017,F,6,,4/10/19,English,C179203,,,,,,null,sound/1star.wav,,audio-keyboard-response,77,277157,0.0-6.0-1.35,dynamic,"2,3,1,6",S017,F,6,,4/10/19,English,C179203,,,null,1,100,815,,3,html-button-response,78,277978,0.0-6.0-0.36,dynamic,"2,3,1,6",S017,F,6,,4/10/19,English,C179203,,,,,,null,sound/6star.wav,,audio-keyboard-response,79,279484,0.0-6.0-1.36,dynamic,"2,3,1,6",S017,F,6,,4/10/19,English,C179203,,,null,6,106,2593,,1,html-button-response,80,282084,0.0-6.0-0.37,dynamic,"2,3,1,6",S017,F,6,,4/10/19,English,C179203,,,,,,null,sound/3star.wav,,audio-keyboard-response,81,283590,0.0-6.0-1.37,dynamic,"2,3,1,6",S017,F,6,,4/10/19,English,C179203,,,null,3,109,1291,,3,html-button-response,82,284888,0.0-6.0-0.38,dynamic,"2,3,1,6",S017,F,6,,4/10/19,English,C179203,,,,,,null,sound/6star.wav,,audio-keyboard-response,83,286393,0.0-6.0-1.38,dynamic,"2,3,1,6",S017,F,6,,4/10/19,English,C179203,,,null,6,115,1489,,1,html-button-response,84,287890,0.0-6.0-0.39,dynamic,"2,3,1,6",S017,F,6,,4/10/19,English,C179203,,,,,,null,sound/3star.wav,,audio-keyboard-response,85,289397,0.0-6.0-1.39,dynamic,"2,3,1,6",S017,F,6,,4/10/19,English,C179203,,,null,3,118,2026,,1,html-button-response,86,291431,0.0-7.0-0.0,dynamic,"2,3,1,6",S017,F,6,,4/10/19,English,C179203,,,,,,null,sound/3star.wav,,audio-keyboard-response,87,292938,0.0-7.0-1.0,dynamic,"2,3,1,6",S017,F,6,,4/10/19,English,C179203,,,null,3,121,2268,,3,html-button-response,88,295217,0.0-7.0-0.1,dynamic,"2,3,1,6",S017,F,6,,4/10/19,English,C179203,,,,,,null,sound/6star.wav,,audio-keyboard-response,89,296723,0.0-7.0-1.1,dynamic,"2,3,1,6",S017,F,6,,4/10/19,English,C179203,,,null,6,127,913,,0,html-button-response,90,297643,0.0-7.0-0.2,dynamic,"2,3,1,6",S017,F,6,,4/10/19,English,C179203,,,,,,null,sound/2star.wav,,audio-keyboard-response,91,299148,0.0-7.0-1.2,dynamic,"2,3,1,6",S017,F,6,,4/10/19,English,C179203,,,null,2,129,722,,2,html-button-response,92,299877,0.0-7.0-0.3,dynamic,"2,3,1,6",S017,F,6,,4/10/19,English,C179203,,,,,,null,sound/8star.wav,,audio-keyboard-response,93,301387,0.0-7.0-1.3,dynamic,"2,3,1,6",S017,F,6,,4/10/19,English,C179203,,,null,8,137,3584,,3,html-button-response,94,304978,0.0-7.0-0.4,dynamic,"2,3,1,6",S017,F,6,,4/10/19,English,C179203,,,,,,null,sound/6star.wav,,audio-keyboard-response,95,306491,0.0-7.0-1.4,dynamic,"2,3,1,6",S017,F,6,,4/10/19,English,C179203,,,null,6,143,872,,1,html-button-response,96,307370,0.0-7.0-0.5,dynamic,"2,3,1,6",S017,F,6,,4/10/19,English,C179203,,,,,,null,sound/3star.wav,,audio-keyboard-response,97,308877,0.0-7.0-1.5,dynamic,"2,3,1,6",S017,F,6,,4/10/19,English,C179203,,,null,3,146,820,,0,html-button-response,98,309702,0.0-7.0-0.6,dynamic,"2,3,1,6",S017,F,6,,4/10/19,English,C179203,,,,,,null,sound/2star.wav,,audio-keyboard-response,99,311209,0.0-7.0-1.6,dynamic,"2,3,1,6",S017,F,6,,4/10/19,English,C179203,,,null,2,148,2287,,2,html-button-response,100,313503,0.0-7.0-0.7,dynamic,"2,3,1,6",S017,F,6,,4/10/19,English,C179203,,,,,,null,sound/8star.wav,,audio-keyboard-response,101,315008,0.0-7.0-1.7,dynamic,"2,3,1,6",S017,F,6,,4/10/19,English,C179203,,,null,8,156,1087,,3,html-button-response,102,316102,0.0-7.0-0.8,dynamic,"2,3,1,6",S017,F,6,,4/10/19,English,C179203,,,,,,null,sound/6star.wav,,audio-keyboard-response,103,317608,0.0-7.0-1.8,dynamic,"2,3,1,6",S017,F,6,,4/10/19,English,C179203,,,null,6,162,771,,1,html-button-response,104,318385,0.0-7.0-0.9,dynamic,"2,3,1,6",S017,F,6,,4/10/19,English,C179203,,,,,,null,sound/3star.wav,,audio-keyboard-response,105,319890,0.0-7.0-1.9,dynamic,"2,3,1,6",S017,F,6,,4/10/19,English,C179203,,,null,3,165,824,,0,html-button-response,106,320722,0.0-7.0-0.10,dynamic,"2,3,1,6",S017,F,6,,4/10/19,English,C179203,,,,,,null,sound/2star.wav,,audio-keyboard-response,107,322237,0.0-7.0-1.10,dynamic,"2,3,1,6",S017,F,6,,4/10/19,English,C179203,,,null,2,167,1269,,2,html-button-response,108,323522,0.0-7.0-0.11,dynamic,"2,3,1,6",S017,F,6,,4/10/19,English,C179203,,,,,,null,sound/8star.wav,,audio-keyboard-response,109,325032,0.0-7.0-1.11,dynamic,"2,3,1,6",S017,F,6,,4/10/19,English,C179203,,,null,8,175,931,,3,html-button-response,110,325969,0.0-7.0-0.12,dynamic,"2,3,1,6",S017,F,6,,4/10/19,English,C179203,,,,,,null,sound/6star.wav,,audio-keyboard-response,111,327477,0.0-7.0-1.12,dynamic,"2,3,1,6",S017,F,6,,4/10/19,English,C179203,,,null,6,181,801,,1,html-button-response,112,328284,0.0-7.0-0.13,dynamic,"2,3,1,6",S017,F,6,,4/10/19,English,C179203,,,,,,null,sound/3star.wav,,audio-keyboard-response,113,329790,0.0-7.0-1.13,dynamic,"2,3,1,6",S017,F,6,,4/10/19,English,C179203,,,null,3,184,1587,,0,html-button-response,114,331383,0.0-7.0-0.14,dynamic,"2,3,1,6",S017,F,6,,4/10/19,English,C179203,,,,,,null,sound/2star.wav,,audio-keyboard-response,115,332888,0.0-7.0-1.14,dynamic,"2,3,1,6",S017,F,6,,4/10/19,English,C179203,,,null,2,186,32394,,2,html-button-response,116,365291,0.0-7.0-0.15,dynamic,"2,3,1,6",S017,F,6,,4/10/19,English,C179203,,,,,,null,sound/8star.wav,,audio-keyboard-response,117,366798,0.0-7.0-1.15,dynamic,"2,3,1,6",S017,F,6,,4/10/19,English,C179203,,,null,8,194,2037,,0,html-button-response,118,368850,0.0-7.0-0.16,dynamic,"2,3,1,6",S017,F,6,,4/10/19,English,C179203,,,,,,null,sound/2star.wav,,audio-keyboard-response,119,370357,0.0-7.0-1.16,dynamic,"2,3,1,6",S017,F,6,,4/10/19,English,C179203,,,null,2,196,866,,1,html-button-response,120,371232,0.0-7.0-0.17,dynamic,"2,3,1,6",S017,F,6,,4/10/19,English,C179203,,,,,,null,sound/3star.wav,,audio-keyboard-response,121,372738,0.0-7.0-1.17,dynamic,"2,3,1,6",S017,F,6,,4/10/19,English,C179203,,,null,3,199,1358,,2,html-button-response,122,374104,0.0-7.0-0.18,dynamic,"2,3,1,6",S017,F,6,,4/10/19,English,C179203,,,,,,null,sound/8star.wav,,audio-keyboard-response,123,375609,0.0-7.0-1.18,dynamic,"2,3,1,6",S017,F,6,,4/10/19,English,C179203,,,null,8,207,1155,,3,html-button-response,124,376775,0.0-7.0-0.19,dynamic,"2,3,1,6",S017,F,6,,4/10/19,English,C179203,,,,,,null,sound/6star.wav,,audio-keyboard-response,125,378281,0.0-7.0-1.19,dynamic,"2,3,1,6",S017,F,6,,4/10/19,English,C179203,,,null,6,213,2902,,2,html-button-response,126,381189,0.0-7.0-0.20,dynamic,"2,3,1,6",S017,F,6,,4/10/19,English,C179203,,,,,,null,sound/8star.wav,,audio-keyboard-response,127,382695,0.0-7.0-1.20,dynamic,"2,3,1,6",S017,F,6,,4/10/19,English,C179203,,,null,8,221,1050,,3,html-button-response,128,383748,0.0-7.0-0.21,dynamic,"2,3,1,6",S017,F,6,,4/10/19,English,C179203,,,,,,null,sound/6star.wav,,audio-keyboard-response,129,385255,0.0-7.0-1.21,dynamic,"2,3,1,6",S017,F,6,,4/10/19,English,C179203,,,null,6,227,2590,,0,html-button-response,130,387853,0.0-7.0-0.22,dynamic,"2,3,1,6",S017,F,6,,4/10/19,English,C179203,,,,,,null,sound/2star.wav,,audio-keyboard-response,131,389360,0.0-7.0-1.22,dynamic,"2,3,1,6",S017,F,6,,4/10/19,English,C179203,,,null,2,229,865,,1,html-button-response,132,390232,0.0-7.0-0.23,dynamic,"2,3,1,6",S017,F,6,,4/10/19,English,C179203,,,,,,null,sound/3star.wav,,audio-keyboard-response,133,391738,0.0-7.0-1.23,dynamic,"2,3,1,6",S017,F,6,,4/10/19,English,C179203,,,null,3,232,1235,,2,html-button-response,134,392982,0.0-7.0-0.24,dynamic,"2,3,1,6",S017,F,6,,4/10/19,English,C179203,,,,,,null,sound/8star.wav,,audio-keyboard-response,135,394488,0.0-7.0-1.24,dynamic,"2,3,1,6",S017,F,6,,4/10/19,English,C179203,,,null,8,240,11154,,3,html-button-response,136,405649,0.0-7.0-0.25,dynamic,"2,3,1,6",S017,F,6,,4/10/19,English,C179203,,,,,,null,sound/6star.wav,,audio-keyboard-response,137,407155,0.0-7.0-1.25,dynamic,"2,3,1,6",S017,F,6,,4/10/19,English,C179203,,,null,6,246,1709,,1,html-button-response,138,408874,0.0-7.0-0.26,dynamic,"2,3,1,6",S017,F,6,,4/10/19,English,C179203,,,,,,null,sound/3star.wav,,audio-keyboard-response,139,410380,0.0-7.0-1.26,dynamic,"2,3,1,6",S017,F,6,,4/10/19,English,C179203,,,null,3,249,5049,,0,html-button-response,140,415438,0.0-7.0-0.27,dynamic,"2,3,1,6",S017,F,6,,4/10/19,English,C179203,,,,,,null,sound/2star.wav,,audio-keyboard-response,141,416943,0.0-7.0-1.27,dynamic,"2,3,1,6",S017,F,6,,4/10/19,English,C179203,,,null,2,251,692,,2,html-button-response,142,417642,0.0-7.0-0.28,dynamic,"2,3,1,6",S017,F,6,,4/10/19,English,C179203,,,,,,null,sound/8star.wav,,audio-keyboard-response,143,419148,0.0-7.0-1.28,dynamic,"2,3,1,6",S017,F,6,,4/10/19,English,C179203,,,null,8,259,1694,,3,html-button-response,144,420849,0.0-7.0-0.29,dynamic,"2,3,1,6",S017,F,6,,4/10/19,English,C179203,,,,,,null,sound/6star.wav,,audio-keyboard-response,145,422355,0.0-7.0-1.29,dynamic,"2,3,1,6",S017,F,6,,4/10/19,English,C179203,,,null,6,265,788,,1,html-button-response,146,423149,0.0-7.0-0.30,dynamic,"2,3,1,6",S017,F,6,,4/10/19,English,C179203,,,,,,null,sound/3star.wav,,audio-keyboard-response,147,424657,0.0-7.0-1.30,dynamic,"2,3,1,6",S017,F,6,,4/10/19,English,C179203,,,null,3,268,810,,0,html-button-response,148,425473,0.0-7.0-0.31,dynamic,"2,3,1,6",S017,F,6,,4/10/19,English,C179203,,,,,,null,sound/2star.wav,,audio-keyboard-response,149,426979,0.0-7.0-1.31,dynamic,"2,3,1,6",S017,F,6,,4/10/19,English,C179203,,,null,2,270,1306,,2,html-button-response,150,428294,0.0-7.0-0.32,dynamic,"2,3,1,6",S017,F,6,,4/10/19,English,C179203,,,,,,null,sound/8star.wav,,audio-keyboard-response,151,429801,0.0-7.0-1.32,dynamic,"2,3,1,6",S017,F,6,,4/10/19,English,C179203,,,null,8,278,776,,3,html-button-response,152,430602,0.0-7.0-0.33,dynamic,"2,3,1,6",S017,F,6,,4/10/19,English,C179203,,,,,,null,sound/6star.wav,,audio-keyboard-response,153,432110,0.0-7.0-1.33,dynamic,"2,3,1,6",S017,F,6,,4/10/19,English,C179203,,,null,6,284,13282,,1,html-button-response,154,445402,0.0-7.0-0.34,dynamic,"2,3,1,6",S017,F,6,,4/10/19,English,C179203,,,,,,null,sound/3star.wav,,audio-keyboard-response,155,446907,0.0-7.0-1.34,dynamic,"2,3,1,6",S017,F,6,,4/10/19,English,C179203,,,null,3,287,808,,0,html-button-response,156,447722,0.0-7.0-0.35,dynamic,"2,3,1,6",S017,F,6,,4/10/19,English,C179203,,,,,,null,sound/2star.wav,,audio-keyboard-response,157,449229,0.0-7.0-1.35,dynamic,"2,3,1,6",S017,F,6,,4/10/19,English,C179203,,,null,2,289,737,,2,html-button-response,158,449971,0.0-7.0-0.36,dynamic,"2,3,1,6",S017,F,6,,4/10/19,English,C179203,,,,,,null,sound/8star.wav,,audio-keyboard-response,159,451477,0.0-7.0-1.36,dynamic,"2,3,1,6",S017,F,6,,4/10/19,English,C179203,,,null,8,297,1223,,1,html-button-response,160,452707,0.0-7.0-0.37,dynamic,"2,3,1,6",S017,F,6,,4/10/19,English,C179203,,,,,,null,sound/3star.wav,,audio-keyboard-response,161,454213,0.0-7.0-1.37,dynamic,"2,3,1,6",S017,F,6,,4/10/19,English,C179203,,,null,3,300,1028,,3,html-button-response,162,455249,0.0-7.0-0.38,dynamic,"2,3,1,6",S017,F,6,,4/10/19,English,C179203,,,,,,null,sound/6star.wav,,audio-keyboard-response,163,456755,0.0-7.0-1.38,dynamic,"2,3,1,6",S017,F,6,,4/10/19,English,C179203,,,null,6,306,772,,0,html-button-response,164,457534,0.0-7.0-0.39,dynamic,"2,3,1,6",S017,F,6,,4/10/19,English,C179203,,,,,,null,sound/2star.wav,,audio-keyboard-response,165,459041,0.0-7.0-1.39,dynamic,"2,3,1,6",S017,F,6,,4/10/19,English,C179203,,,null,2,308,11967,sound/celebration.wav,0,audio-button-response,166,471023,0.0-8.0,dynamic,"2,3,1,6",S017,F,6,,4/10/19,English,C179203,,,,,,28741,"Which, if any, of these monsters ever gave you <b>1 star</b>?</p>",5,html-button-response,167,499770,0.0-9.0-0.0,dynamic,"2,3,1,6",S017,F,6,,4/10/19,English,C179203,,,,,,incorrect14713,"Which, if any, of these monsters ever gave you <b>2 stars</b>?</p>",0,html-button-response,168,515295,0.0-10.0-0.0,dynamic,"2,3,1,6",S017,F,6,,4/10/19,English,C179203,,,,,,correct11075,"Which, if any, of these monsters ever gave you <b>3 stars</b>?</p>",3,html-button-response,169,527179,0.0-11.0-0.0,dynamic,"2,3,1,6",S017,F,6,,4/10/19,English,C179203,,,,,,incorrect12693,"Which, if any, of these monsters ever gave you <b>6 stars</b>?</p>",1,html-button-response,170,540879,0.0-12.0-0.0,dynamic,"2,3,1,6",S017,F,6,,4/10/19,English,C179203,,,,,,incorrect4901,"Which, if any, of these monsters ever gave you <b>8 stars</b>?</p>",2,html-button-response,171,546590,0.0-13.0-0.0,dynamic,"2,3,1,6",S017,F,6,,4/10/19,English,C179203,,,,,,correct5892,Which monster did you like the most?</p>,2,html-button-response,172,553289,0.0-14.0-0.0,dynamic,"2,3,1,6",S017,F,6,,4/10/19,English,C179203,,,,,,17562,,,survey-text,173,571662,0.0-15.0,dynamic,"2,3,1,6",S017,F,6,,4/10/19,English,C179203,,"\{""Q0"":""Because it looked like a cat and I like cats""\}",,,,rt,stimulus,button_pressed,trial_type,trial_index,time_elapsed,internal_node_id,condition,pointvals_firsthalf,subjID,gender,age,dob,dot,language,turkID,animation_sequence,responses,key_press,earnedThis,earnedCumulative,posttest81576,,0,html-button-response,0,81584,0.0-0.0,static,"2,6,3,1",I010,,,,"April 06,2019",,C665806,,,,,,,,,animation,1,93591,0.0-1.0,static,"2,6,3,1",I010,,,,"April 06,2019",,C665806,"[\{""stimulus"":""img/screen1a.png"",""time"":3007\},\{""stimulus"":""img/screen1b.png"",""time"":6006\},\{""stimulus"":""img/screen1c.png"",""time"":9005\}]",[],,,,3480,<img src='img/screen1d.png'></img>,0,html-button-response,2,97078,0.0-2.0,static,"2,6,3,1",I010,,,,"April 06,2019",,C665806,,,,,,,,,animation,3,117884,0.0-3.0,static,"2,6,3,1",I010,,,,"April 06,2019",,C665806,"[\{""stimulus"":""img/screen2.jpg"",""time"":806\},\{""stimulus"":""img/screen2.jpg"",""time"":1607\},\{""stimulus"":""img/screen2.jpg"",""time"":2405\},\{""stimulus"":""img/screen2.jpg"",""time"":3204\},\{""stimulus"":""img/screen2.jpg"",""time"":4004\},\{""stimulus"":""img/screen3a.jpg"",""time"":4807\},\{""stimulus"":""img/screen3b.jpg"",""time"":5606\},\{""stimulus"":""img/screen3c.jpg"",""time"":6402\},\{""stimulus"":""img/screen3d.jpg"",""time"":7201\},\{""stimulus"":""img/screen4a.jpg"",""time"":8001\},\{""stimulus"":""img/screen4a.jpg"",""time"":8807\},\{""stimulus"":""img/screen4b.jpg"",""time"":9605\},\{""stimulus"":""img/screen4c.jpg"",""time"":10402\},\{""stimulus"":""img/screen4d.jpg"",""time"":11201\},\{""stimulus"":""img/screen4d.jpg"",""time"":12001\},\{""stimulus"":""img/screen5a.jpg"",""time"":12806\},\{""stimulus"":""img/screen5b1.jpg"",""time"":13608\},\{""stimulus"":""img/screen5b2.jpg"",""time"":14401\},\{""stimulus"":""img/screen5b3.jpg"",""time"":15203\},\{""stimulus"":""img/screen5b4.jpg"",""time"":16006\},\{""stimulus"":""img/screen5b5.jpg"",""time"":16806\},\{""stimulus"":""img/screen5b6.jpg"",""time"":17606\},\{""stimulus"":""img/screen5c.jpg"",""time"":18402\},\{""stimulus"":""img/screen5d.jpg"",""time"":19201\},\{""stimulus"":""img/screen5d.jpg"",""time"":20005\}]",[],,,,8529,<img src='img/screen5e.jpg'></img>,0,html-button-response,4,126418,0.0-4.0,static,"2,6,3,1",I010,,,,"April 06,2019",,C665806,,,,,,2108,<p align='center'></p>,0,html-button-response,5,128533,0.0-5.0,static,"2,6,3,1",I010,,,,"April 06,2019",,C665806,,,,,,4767,,2,html-button-response,6,133312,0.0-6.0-0.0,static,"2,6,3,1",I010,,,,"April 06,2019",,C665806,,,,,,null,sound/3star.wav,,audio-keyboard-response,7,134826,0.0-6.0-1.0,static,"2,6,3,1",I010,,,,"April 06,2019",,C665806,,,null,3,3,2419,,1,html-button-response,8,137255,0.0-6.0-0.1,static,"2,6,3,1",I010,,,,"April 06,2019",,C665806,,,,,,null,sound/6star.wav,,audio-keyboard-response,9,138759,0.0-6.0-1.1,static,"2,6,3,1",I010,,,,"April 06,2019",,C665806,,,null,6,9,1603,,0,html-button-response,10,140368,0.0-6.0-0.2,static,"2,6,3,1",I010,,,,"April 06,2019",,C665806,,,,,,null,sound/2star.wav,,audio-keyboard-response,11,141873,0.0-6.0-1.2,static,"2,6,3,1",I010,,,,"April 06,2019",,C665806,,,null,2,11,866,,3,html-button-response,12,142749,0.0-6.0-0.3,static,"2,6,3,1",I010,,,,"April 06,2019",,C665806,,,,,,null,sound/1star.wav,,audio-keyboard-response,13,144252,0.0-6.0-1.3,static,"2,6,3,1",I010,,,,"April 06,2019",,C665806,,,null,1,12,3190,,2,html-button-response,14,147452,0.0-6.0-0.4,static,"2,6,3,1",I010,,,,"April 06,2019",,C665806,,,,,,null,sound/3star.wav,,audio-keyboard-response,15,148964,0.0-6.0-1.4,static,"2,6,3,1",I010,,,,"April 06,2019",,C665806,,,null,3,15,1137,,1,html-button-response,16,150107,0.0-6.0-0.5,static,"2,6,3,1",I010,,,,"April 06,2019",,C665806,,,,,,null,sound/6star.wav,,audio-keyboard-response,17,151611,0.0-6.0-1.5,static,"2,6,3,1",I010,,,,"April 06,2019",,C665806,,,null,6,21,1191,,0,html-button-response,18,152810,0.0-6.0-0.6,static,"2,6,3,1",I010,,,,"April 06,2019",,C665806,,,,,,null,sound/2star.wav,,audio-keyboard-response,19,154316,0.0-6.0-1.6,static,"2,6,3,1",I010,,,,"April 06,2019",,C665806,,,null,2,23,839,,3,html-button-response,20,155166,0.0-6.0-0.7,static,"2,6,3,1",I010,,,,"April 06,2019",,C665806,,,,,,null,sound/1star.wav,,audio-keyboard-response,21,156674,0.0-6.0-1.7,static,"2,6,3,1",I010,,,,"April 06,2019",,C665806,,,null,1,24,862,,1,html-button-response,22,157545,0.0-6.0-0.8,static,"2,6,3,1",I010,,,,"April 06,2019",,C665806,,,,,,null,sound/6star.wav,,audio-keyboard-response,23,159052,0.0-6.0-1.8,static,"2,6,3,1",I010,,,,"April 06,2019",,C665806,,,null,6,30,1236,,0,html-button-response,24,160299,0.0-6.0-0.9,static,"2,6,3,1",I010,,,,"April 06,2019",,C665806,,,,,,null,sound/2star.wav,,audio-keyboard-response,25,161803,0.0-6.0-1.9,static,"2,6,3,1",I010,,,,"April 06,2019",,C665806,,,null,2,32,1866,,1,html-button-response,26,163679,0.0-6.0-0.10,static,"2,6,3,1",I010,,,,"April 06,2019",,C665806,,,,,,null,sound/6star.wav,,audio-keyboard-response,27,165187,0.0-6.0-1.10,static,"2,6,3,1",I010,,,,"April 06,2019",,C665806,,,null,6,38,1893,,3,html-button-response,28,167101,0.0-6.0-0.11,static,"2,6,3,1",I010,,,,"April 06,2019",,C665806,,,,,,null,sound/1star.wav,,audio-keyboard-response,29,168614,0.0-6.0-1.11,static,"2,6,3,1",I010,,,,"April 06,2019",,C665806,,,null,1,39,1940,,2,html-button-response,30,170567,0.0-6.0-0.12,static,"2,6,3,1",I010,,,,"April 06,2019",,C665806,,,,,,null,sound/3star.wav,,audio-keyboard-response,31,172071,0.0-6.0-1.12,static,"2,6,3,1",I010,,,,"April 06,2019",,C665806,,,null,3,42,905,,0,html-button-response,32,172983,0.0-6.0-0.13,static,"2,6,3,1",I010,,,,"April 06,2019",,C665806,,,,,,null,sound/2star.wav,,audio-keyboard-response,33,174491,0.0-6.0-1.13,static,"2,6,3,1",I010,,,,"April 06,2019",,C665806,,,null,2,44,930,,3,html-button-response,34,175430,0.0-6.0-0.14,static,"2,6,3,1",I010,,,,"April 06,2019",,C665806,,,,,,null,sound/1star.wav,,audio-keyboard-response,35,176935,0.0-6.0-1.14,static,"2,6,3,1",I010,,,,"April 06,2019",,C665806,,,null,1,45,1304,,0,html-button-response,36,178246,0.0-6.0-0.15,static,"2,6,3,1",I010,,,,"April 06,2019",,C665806,,,,,,null,sound/2star.wav,,audio-keyboard-response,37,179751,0.0-6.0-1.15,static,"2,6,3,1",I010,,,,"April 06,2019",,C665806,,,null,2,47,2453,,0,html-button-response,38,182215,0.0-6.0-0.16,static,"2,6,3,1",I010,,,,"April 06,2019",,C665806,,,,,,null,sound/2star.wav,,audio-keyboard-response,39,183720,0.0-6.0-1.16,static,"2,6,3,1",I010,,,,"April 06,2019",,C665806,,,null,2,49,2442,,1,html-button-response,40,186175,0.0-6.0-0.17,static,"2,6,3,1",I010,,,,"April 06,2019",,C665806,,,,,,