stimulus,button_pressed,trial_type,trial_index,time_elapsed,internal_node_id,condition,pointvals_firsthalf,subjID,gender,age,dob,dot,language,turkID,animation_sequence,responses,key_press,earnedThis,earnedCumulative,posttest
,0,html-button-response,0,7504,0.0-0.0,dynamic,"3,1,2,6",S011,M,10,20/10/2008,10/5/19,English,C243070,,,,,,
,,animation,1,19527,0.0-1.0,dynamic,"3,1,2,6",S011,M,10,20/10/2008,10/5/19,English,C243070,"[{""stimulus"":""img/screen1a.png"",""time"":3003},{""stimulus"":""img/screen1b.png"",""time"":6003},{""stimulus"":""img/screen1c.png"",""time"":9005}]",[],,,,
<img src='img/screen1d.png'></img>,0,html-button-response,2,39800,0.0-2.0,dynamic,"3,1,2,6",S011,M,10,20/10/2008,10/5/19,English,C243070,,,,,,
,,animation,3,60638,0.0-3.0,dynamic,"3,1,2,6",S011,M,10,20/10/2008,10/5/19,English,C243070,"[{""stimulus"":""img/screen2.jpg"",""time"":802},{""stimulus"":""img/screen2.jpg"",""time"":1604},{""stimulus"":""img/screen2.jpg"",""time"":2405},{""stimulus"":""img/screen2.jpg"",""time"":3207},{""stimulus"":""img/screen2.jpg"",""time"":4008},{""stimulus"":""img/screen3a.jpg"",""time"":4810},{""stimulus"":""img/screen3b.jpg"",""time"":5611},{""stimulus"":""img/screen3c.jpg"",""time"":6412},{""stimulus"":""img/screen3d.jpg"",""time"":7213},{""stimulus"":""img/screen4a.jpg"",""time"":8015},{""stimulus"":""img/screen4a.jpg"",""time"":8816},{""stimulus"":""img/screen4b.jpg"",""time"":9617},{""stimulus"":""img/screen4c.jpg"",""time"":10419},{""stimulus"":""img/screen4d.jpg"",""time"":11220},{""stimulus"":""img/screen4d.jpg"",""time"":12021},{""stimulus"":""img/screen5a.jpg"",""time"":12823},{""stimulus"":""img/screen5b1.jpg"",""time"":13624},{""stimulus"":""img/screen5b2.jpg"",""time"":14425},{""stimulus"":""img/screen5b3.jpg"",""time"":15227},{""stimulus"":""img/screen5b4.jpg"",""time"":16028},{""stimulus"":""img/screen5b5.jpg"",""time"":16829},{""stimulus"":""img/screen5b6.jpg"",""time"":17631},{""stimulus"":""img/screen5c.jpg"",""time"":18433},{""stimulus"":""img/screen5d.jpg"",""time"":19233},{""stimulus"":""img/screen5d.jpg"",""time"":20035}]",[],,,,
<img src='img/screen5e.jpg'></img>,0,html-button-response,4,73061,0.0-4.0,dynamic,"3,1,2,6",S011,M,10,20/10/2008,10/5/19,English,C243070,,,,,,
<p align='center'></p>,0,html-button-response,5,89844,0.0-5.0,dynamic,"3,1,2,6",S011,M,10,20/10/2008,10/5/19,English,C243070,,,,,,
,2,html-button-response,6,94569,0.0-6.0-0.0,dynamic,"3,1,2,6",S011,M,10,20/10/2008,10/5/19,English,C243070,,,,,,
sound/2star.wav,,audio-keyboard-response,7,96468,0.0-6.0-1.0,dynamic,"3,1,2,6",S011,M,10,20/10/2008,10/5/19,English,C243070,,,null,2,2,
,1,html-button-response,8,98738,0.0-6.0-0.1,dynamic,"3,1,2,6",S011,M,10,20/10/2008,10/5/19,English,C243070,,,,,,
sound/1star.wav,,audio-keyboard-response,9,100244,0.0-6.0-1.1,dynamic,"3,1,2,6",S011,M,10,20/10/2008,10/5/19,English,C243070,,,null,1,3,
,0,html-button-response,10,104176,0.0-6.0-0.2,dynamic,"3,1,2,6",S011,M,10,20/10/2008,10/5/19,English,C243070,,,,,,
sound/3star.wav,,audio-keyboard-response,11,105681,0.0-6.0-1.2,dynamic,"3,1,2,6",S011,M,10,20/10/2008,10/5/19,English,C243070,,,null,3,6,
,3,html-button-response,12,107168,0.0-6.0-0.3,dynamic,"3,1,2,6",S011,M,10,20/10/2008,10/5/19,English,C243070,,,,,,
sound/6star.wav,,audio-keyboard-response,13,108674,0.0-6.0-1.3,dynamic,"3,1,2,6",S011,M,10,20/10/2008,10/5/19,English,C243070,,,null,6,12,
,2,html-button-response,14,109734,0.0-6.0-0.4,dynamic,"3,1,2,6",S011,M,10,20/10/2008,10/5/19,English,C243070,,,,,,
sound/2star.wav,,audio-keyboard-response,15,111239,0.0-6.0-1.4,dynamic,"3,1,2,6",S011,M,10,20/10/2008,10/5/19,English,C243070,,,null,2,14,
,3,html-button-response,16,116835,0.0-6.0-0.5,dynamic,"3,1,2,6",S011,M,10,20/10/2008,10/5/19,English,C243070,,,,,,
sound/6star.wav,,audio-keyboard-response,17,118342,0.0-6.0-1.5,dynamic,"3,1,2,6",S011,M,10,20/10/2008,10/5/19,English,C243070,,,null,6,20,
,1,html-button-response,18,119478,0.0-6.0-0.6,dynamic,"3,1,2,6",S011,M,10,20/10/2008,10/5/19,English,C243070,,,,,,
sound/1star.wav,,audio-keyboard-response,19,120984,0.0-6.0-1.6,dynamic,"3,1,2,6",S011,M,10,20/10/2008,10/5/19,English,C243070,,,null,1,21,
,0,html-button-response,20,122436,0.0-6.0-0.7,dynamic,"3,1,2,6",S011,M,10,20/10/2008,10/5/19,English,C243070,,,,,,
sound/3star.wav,,audio-keyboard-response,21,123941,0.0-6.0-1.7,dynamic,"3,1,2,6",S011,M,10,20/10/2008,10/5/19,English,C243070,,,null,3,24,
,2,html-button-response,22,125179,0.0-6.0-0.8,dynamic,"3,1,2,6",S011,M,10,20/10/2008,10/5/19,English,C243070,,,,,,
sound/2star.wav,,audio-keyboard-response,23,126685,0.0-6.0-1.8,dynamic,"3,1,2,6",S011,M,10,20/10/2008,10/5/19,English,C243070,,,null,2,26,
,3,html-button-response,24,127428,0.0-6.0-0.9,dynamic,"3,1,2,6",S011,M,10,20/10/2008,10/5/19,English,C243070,,,,,,
sound/6star.wav,,audio-keyboard-response,25,128934,0.0-6.0-1.9,dynamic,"3,1,2,6",S011,M,10,20/10/2008,10/5/19,English,C243070,,,null,6,32,
,0,html-button-response,26,129687,0.0-6.0-0.10,dynamic,"3,1,2,6",S011,M,10,20/10/2008,10/5/19,English,C243070,,,,,,
sound/3star.wav,,audio-keyboard-response,27,131192,0.0-6.0-1.10,dynamic,"3,1,2,6",S011,M,10,20/10/2008,10/5/19,English,C243070,,,null,3,35,
,1,html-button-response,28,132367,0.0-6.0-0.11,dynamic,"3,1,2,6",S011,M,10,20/10/2008,10/5/19,English,C243070,,,,,,
sound/1star.wav,,audio-keyboard-response,29,133873,0.0-6.0-1.11,dynamic,"3,1,2,6",S011,M,10,20/10/2008,10/5/19,English,C243070,,,null,1,36,
,2,html-button-response,30,134755,0.0-6.0-0.12,dynamic,"3,1,2,6",S011,M,10,20/10/2008,10/5/19,English,C243070,,,,,,
sound/2star.wav,,audio-keyboard-response,31,136262,0.0-6.0-1.12,dynamic,"3,1,2,6",S011,M,10,20/10/2008,10/5/19,English,C243070,,,null,2,38,
,3,html-button-response,32,137501,0.0-6.0-0.13,dynamic,"3,1,2,6",S011,M,10,20/10/2008,10/5/19,English,C243070,,,,,,
sound/6star.wav,,audio-keyboard-response,33,139007,0.0-6.0-1.13,dynamic,"3,1,2,6",S011,M,10,20/10/2008,10/5/19,English,C243070,,,null,6,44,
,0,html-button-response,34,140156,0.0-6.0-0.14,dynamic,"3,1,2,6",S011,M,10,20/10/2008,10/5/19,English,C243070,,,,,,
sound/3star.wav,,audio-keyboard-response,35,141664,0.0-6.0-1.14,dynamic,"3,1,2,6",S011,M,10,20/10/2008,10/5/19,English,C243070,,,null,3,47,
,2,html-button-response,36,145687,0.0-6.0-0.15,dynamic,"3,1,2,6",S011,M,10,20/10/2008,10/5/19,English,C243070,,,,,,
sound/2star.wav,,audio-keyboard-response,37,147192,0.0-6.0-1.15,dynamic,"3,1,2,6",S011,M,10,20/10/2008,10/5/19,English,C243070,,,null,2,49,
,1,html-button-response,38,148164,0.0-6.0-0.16,dynamic,"3,1,2,6",S011,M,10,20/10/2008,10/5/19,English,C243070,,,,,,
sound/1star.wav,,audio-keyboard-response,39,149669,0.0-6.0-1.16,dynamic,"3,1,2,6",S011,M,10,20/10/2008,10/5/19,English,C243070,,,null,1,50,
,3,html-button-response,40,150954,0.0-6.0-0.17,dynamic,"3,1,2,6",S011,M,10,20/10/2008,10/5/19,English,C243070,,,,,,
sound/6star.wav,,audio-keyboard-response,41,152460,0.0-6.0-1.17,dynamic,"3,1,2,6",S011,M,10,20/10/2008,10/5/19,English,C243070,,,null,6,56,
,0,html-button-response,42,154323,0.0-6.0-0.18,dynamic,"3,1,2,6",S011,M,10,20/10/2008,10/5/19,English,C243070,,,,,,
sound/3star.wav,,audio-keyboard-response,43,155829,0.0-6.0-1.18,dynamic,"3,1,2,6",S011,M,10,20/10/2008,10/5/19,English,C243070,,,null,3,59,
,2,html-button-response,44,156704,0.0-6.0-0.19,dynamic,"3,1,2,6",S011,M,10,20/10/2008,10/5/19,English,C243070,,,,,,
sound/2star.wav,,audio-keyboard-response,45,158211,0.0-6.0-1.19,dynamic,"3,1,2,6",S011,M,10,20/10/2008,10/5/19,English,C243070,,,null,2,61,
,1,html-button-response,46,159153,0.0-6.0-0.20,dynamic,"3,1,2,6",S011,M,10,20/10/2008,10/5/19,English,C243070,,,,,,
sound/1star.wav,,audio-keyboard-response,47,160659,0.0-6.0-1.20,dynamic,"3,1,2,6",S011,M,10,20/10/2008,10/5/19,English,C243070,,,null,1,62,
,3,html-button-response,48,162490,0.0-6.0-0.21,dynamic,"3,1,2,6",S011,M,10,20/10/2008,10/5/19,English,C243070,,,,,,
sound/6star.wav,,audio-keyboard-response,49,163997,0.0-6.0-1.21,dynamic,"3,1,2,6",S011,M,10,20/10/2008,10/5/19,English,C243070,,,null,6,68,
,0,html-button-response,50,165249,0.0-6.0-0.22,dynamic,"3,1,2,6",S011,M,10,20/10/2008,10/5/19,English,C243070,,,,,,
sound/3star.wav,,audio-keyboard-response,51,166755,0.0-6.0-1.22,dynamic,"3,1,2,6",S011,M,10,20/10/2008,10/5/19,English,C243070,,,null,3,71,
,2,html-button-response,52,168296,0.0-6.0-0.23,dynamic,"3,1,2,6",S011,M,10,20/10/2008,10/5/19,English,C243070,,,,,,
sound/2star.wav,,audio-keyboard-response,53,169802,0.0-6.0-1.23,dynamic,"3,1,2,6",S011,M,10,20/10/2008,10/5/19,English,C243070,,,null,2,73,
,0,html-button-response,54,171762,0.0-6.0-0.24,dynamic,"3,1,2,6",S011,M,10,20/10/2008,10/5/19,English,C243070,,,,,,
sound/3star.wav,,audio-keyboard-response,55,173271,0.0-6.0-1.24,dynamic,"3,1,2,6",S011,M,10,20/10/2008,10/5/19,English,C243070,,,null,3,76,
,3,html-button-response,56,174173,0.0-6.0-0.25,dynamic,"3,1,2,6",S011,M,10,20/10/2008,10/5/19,English,C243070,,,,,,
sound/6star.wav,,audio-keyboard-response,57,175680,0.0-6.0-1.25,dynamic,"3,1,2,6",S011,M,10,20/10/2008,10/5/19,English,C243070,,,null,6,82,
,2,html-button-response,58,177898,0.0-6.0-0.26,dynamic,"3,1,2,6",S011,M,10,20/10/2008,10/5/19,English,C243070,,,,,,
sound/2star.wav,,audio-keyboard-response,59,179403,0.0-6.0-1.26,dynamic,"3,1,2,6",S011,M,10,20/10/2008,10/5/19,English,C243070,,,null,2,84,
,0,html-button-response,60,180897,0.0-6.0-0.27,dynamic,"3,1,2,6",S011,M,10,20/10/2008,10/5/19,English,C243070,,,,,,
sound/3star.wav,,audio-keyboard-response,61,182402,0.0-6.0-1.27,dynamic,"3,1,2,6",S011,M,10,20/10/2008,10/5/19,English,C243070,,,null,3,87,
,3,html-button-response,62,183623,0.0-6.0-0.28,dynamic,"3,1,2,6",S011,M,10,20/10/2008,10/5/19,English,C243070,,,,,,
sound/6star.wav,,audio-keyboard-response,63,185128,0.0-6.0-1.28,dynamic,"3,1,2,6",S011,M,10,20/10/2008,10/5/19,English,C243070,,,null,6,93,
,0,html-button-response,64,206525,0.0-6.0-0.29,dynamic,"3,1,2,6",S011,M,10,20/10/2008,10/5/19,English,C243070,,,,,,
sound/3star.wav,,audio-keyboard-response,65,208030,0.0-6.0-1.29,dynamic,"3,1,2,6",S011,M,10,20/10/2008,10/5/19,English,C243070,,,null,3,96,
,3,html-button-response,66,208672,0.0-6.0-0.30,dynamic,"3,1,2,6",S011,M,10,20/10/2008,10/5/19,English,C243070,,,,,,
sound/6star.wav,,audio-keyboard-response,67,210178,0.0-6.0-1.30,dynamic,"3,1,2,6",S011,M,10,20/10/2008,10/5/19,English,C243070,,,null,6,102,
,0,html-button-response,68,211296,0.0-6.0-0.31,dynamic,"3,1,2,6",S011,M,10,20/10/2008,10/5/19,English,C243070,,,,,,
sound/3star.wav,,audio-keyboard-response,69,212803,0.0-6.0-1.31,dynamic,"3,1,2,6",S011,M,10,20/10/2008,10/5/19,English,C243070,,,null,3,105,
,1,html-button-response,70,213409,0.0-6.0-0.32,dynamic,"3,1,2,6",S011,M,10,20/10/2008,10/5/19,English,C243070,,,,,,
sound/1star.wav,,audio-keyboard-response,71,214916,0.0-6.0-1.32,dynamic,"3,1,2,6",S011,M,10,20/10/2008,10/5/19,English,C243070,,,null,1,106,
,3,html-button-response,72,215662,0.0-6.0-0.33,dynamic,"3,1,2,6",S011,M,10,20/10/2008,10/5/19,English,C243070,,,,,,
sound/6star.wav,,audio-keyboard-response,73,217169,0.0-6.0-1.33,dynamic,"3,1,2,6",S011,M,10,20/10/2008,10/5/19,English,C243070,,,null,6,112,
,3,html-button-response,74,218667,0.0-6.0-0.34,dynamic,"3,1,2,6",S011,M,10,20/10/2008,10/5/19,English,C243070,,,,,,
sound/6star.wav,,audio-keyboard-response,75,220175,0.0-6.0-1.34,dynamic,"3,1,2,6",S011,M,10,20/10/2008,10/5/19,English,C243070,,,null,6,118,
,2,html-button-response,76,220818,0.0-6.0-0.35,dynamic,"3,1,2,6",S011,M,10,20/10/2008,10/5/19,English,C243070,,,,,,
sound/2star.wav,,audio-keyboard-response,77,222324,0.0-6.0-1.35,dynamic,"3,1,2,6",S011,M,10,20/10/2008,10/5/19,English,C243070,,,null,2,120,
,0,html-button-response,78,222841,0.0-6.0-0.36,dynamic,"3,1,2,6",S011,M,10,20/10/2008,10/5/19,English,C243070,,,,,,
sound/3star.wav,,audio-keyboard-response,79,224346,0.0-6.0-1.36,dynamic,"3,1,2,6",S011,M,10,20/10/2008,10/5/19,English,C243070,,,null,3,123,
,0,html-button-response,80,225287,0.0-6.0-0.37,dynamic,"3,1,2,6",S011,M,10,20/10/2008,10/5/19,English,C243070,,,,,,
sound/3star.wav,,audio-keyboard-response,81,226793,0.0-6.0-1.37,dynamic,"3,1,2,6",S011,M,10,20/10/2008,10/5/19,English,C243070,,,null,3,126,
,2,html-button-response,82,227670,0.0-6.0-0.38,dynamic,"3,1,2,6",S011,M,10,20/10/2008,10/5/19,English,C243070,,,,,,
sound/2star.wav,,audio-keyboard-response,83,229175,0.0-6.0-1.38,dynamic,"3,1,2,6",S011,M,10,20/10/2008,10/5/19,English,C243070,,,null,2,128,
,3,html-button-response,84,229856,0.0-6.0-0.39,dynamic,"3,1,2,6",S011,M,10,20/10/2008,10/5/19,English,C243070,,,,,,
sound/6star.wav,,audio-keyboard-response,85,231361,0.0-6.0-1.39,dynamic,"3,1,2,6",S011,M,10,20/10/2008,10/5/19,English,C243070,,,null,6,134,
,1,html-button-response,86,232985,0.0-7.0-0.0,dynamic,"3,1,2,6",S011,M,10,20/10/2008,10/5/19,English,C243070,,,,,,
sound/8star.wav,,audio-keyboard-response,87,234492,0.0-7.0-1.0,dynamic,"3,1,2,6",S011,M,10,20/10/2008,10/5/19,English,C243070,,,null,8,142,
,3,html-button-response,88,235615,0.0-7.0-0.1,dynamic,"3,1,2,6",S011,M,10,20/10/2008,10/5/19,English,C243070,,,,,,
sound/6star.wav,,audio-keyboard-response,89,237122,0.0-7.0-1.1,dynamic,"3,1,2,6",S011,M,10,20/10/2008,10/5/19,English,C243070,,,null,6,148,
,0,html-button-response,90,238757,0.0-7.0-0.2,dynamic,"3,1,2,6",S011,M,10,20/10/2008,10/5/19,English,C243070,,,,,,
sound/3star.wav,,audio-keyboard-response,91,240262,0.0-7.0-1.2,dynamic,"3,1,2,6",S011,M,10,20/10/2008,10/5/19,English,C243070,,,null,3,151,
,2,html-button-response,92,243191,0.0-7.0-0.3,dynamic,"3,1,2,6",S011,M,10,20/10/2008,10/5/19,English,C243070,,,,,,
sound/2star.wav,,audio-keyboard-response,93,244697,0.0-7.0-1.3,dynamic,"3,1,2,6",S011,M,10,20/10/2008,10/5/19,English,C243070,,,null,2,153,
,3,html-button-response,94,245437,0.0-7.0-0.4,dynamic,"3,1,2,6",S011,M,10,20/10/2008,10/5/19,English,C243070,,,,,,
sound/6star.wav,,audio-keyboard-response,95,246942,0.0-7.0-1.4,dynamic,"3,1,2,6",S011,M,10,20/10/2008,10/5/19,English,C243070,,,null,6,159,
,0,html-button-response,96,248326,0.0-7.0-0.5,dynamic,"3,1,2,6",S011,M,10,20/10/2008,10/5/19,English,C243070,,,,,,
sound/3star.wav,,audio-keyboard-response,97,249831,0.0-7.0-1.5,dynamic,"3,1,2,6",S011,M,10,20/10/2008,10/5/19,English,C243070,,,null,3,162,
,2,html-button-response,98,250962,0.0-7.0-0.6,dynamic,"3,1,2,6",S011,M,10,20/10/2008,10/5/19,English,C243070,,,,,,
sound/2star.wav,,audio-keyboard-response,99,252469,0.0-7.0-1.6,dynamic,"3,1,2,6",S011,M,10,20/10/2008,10/5/19,English,C243070,,,null,2,164,
,3,html-button-response,100,253016,0.0-7.0-0.7,dynamic,"3,1,2,6",S011,M,10,20/10/2008,10/5/19,English,C243070,,,,,,
sound/6star.wav,,audio-keyboard-response,101,254523,0.0-7.0-1.7,dynamic,"3,1,2,6",S011,M,10,20/10/2008,10/5/19,English,C243070,,,null,6,170,
,0,html-button-response,102,256622,0.0-7.0-0.8,dynamic,"3,1,2,6",S011,M,10,20/10/2008,10/5/19,English,C243070,,,,,,
sound/3star.wav,,audio-keyboard-response,103,258127,0.0-7.0-1.8,dynamic,"3,1,2,6",S011,M,10,20/10/2008,10/5/19,English,C243070,,,null,3,173,
,3,html-button-response,104,258985,0.0-7.0-0.9,dynamic,"3,1,2,6",S011,M,10,20/10/2008,10/5/19,English,C243070,,,,,,
sound/6star.wav,,audio-keyboard-response,105,260490,0.0-7.0-1.9,dynamic,"3,1,2,6",S011,M,10,20/10/2008,10/5/19,English,C243070,,,null,6,179,
,0,html-button-response,106,261459,0.0-7.0-0.10,dynamic,"3,1,2,6",S011,M,10,20/10/2008,10/5/19,English,C243070,,,,,,
sound/3star.wav,,audio-keyboard-response,107,262965,0.0-7.0-1.10,dynamic,"3,1,2,6",S011,M,10,20/10/2008,10/5/19,English,C243070,,,null,3,182,
,2,html-button-response,108,264668,0.0-7.0-0.11,dynamic,"3,1,2,6",S011,M,10,20/10/2008,10/5/19,English,C243070,,,,,,
sound/2star.wav,,audio-keyboard-response,109,266173,0.0-7.0-1.11,dynamic,"3,1,2,6",S011,M,10,20/10/2008,10/5/19,English,C243070,,,null,2,184,
,1,html-button-response,110,268713,0.0-7.0-0.12,dynamic,"3,1,2,6",S011,M,10,20/10/2008,10/5/19,English,C243070,,,,,,
sound/8star.wav,,audio-keyboard-response,111,270220,0.0-7.0-1.12,dynamic,"3,1,2,6",S011,M,10,20/10/2008,10/5/19,English,C243070,,,null,8,192,
,1,html-button-response,112,278936,0.0-7.0-0.13,dynamic,"3,1,2,6",S011,M,10,20/10/2008,10/5/19,English,C243070,,,,,,
sound/8star.wav,,audio-keyboard-response,113,280453,0.0-7.0-1.13,dynamic,"3,1,2,6",S011,M,10,20/10/2008,10/5/19,English,C243070,,,null,8,200,
,2,html-button-response,114,282744,0.0-7.0-0.14,dynamic,"3,1,2,6",S011,M,10,20/10/2008,10/5/19,English,C243070,,,,,,
sound/2star.wav,,audio-keyboard-response,115,284250,0.0-7.0-1.14,dynamic,"3,1,2,6",S011,M,10,20/10/2008,10/5/19,English,C243070,,,null,2,202,
,3,html-button-response,116,284978,0.0-7.0-0.15,dynamic,"3,1,2,6",S011,M,10,20/10/2008,10/5/19,English,C243070,,,,,,
sound/6star.wav,,audio-keyboard-response,117,286484,0.0-7.0-1.15,dynamic,"3,1,2,6",S011,M,10,20/10/2008,10/5/19,English,C243070,,,null,6,208,
,0,html-button-response,118,290143,0.0-7.0-0.16,dynamic,"3,1,2,6",S011,M,10,20/10/2008,10/5/19,English,C243070,,,,,,
sound/3star.wav,,audio-keyboard-response,119,291648,0.0-7.0-1.16,dynamic,"3,1,2,6",S011,M,10,20/10/2008,10/5/19,English,C243070,,,null,3,211,
,3,html-button-response,120,292404,0.0-7.0-0.17,dynamic,"3,1,2,6",S011,M,10,20/10/2008,10/5/19,English,C243070,,,,,,
sound/6star.wav,,audio-keyboard-response,121,293909,0.0-7.0-1.17,dynamic,"3,1,2,6",S011,M,10,20/10/2008,10/5/19,English,C243070,,,null,6,217,
,1,html-button-response,122,294584,0.0-7.0-0.18,dynamic,"3,1,2,6",S011,M,10,20/10/2008,10/5/19,English,C243070,,,,,,
sound/8star.wav,,audio-keyboard-response,123,296091,0.0-7.0-1.18,dynamic,"3,1,2,6",S011,M,10,20/10/2008,10/5/19,English,C243070,,,null,8,225,
,2,html-button-response,124,297244,0.0-7.0-0.19,dynamic,"3,1,2,6",S011,M,10,20/10/2008,10/5/19,English,C243070,,,,,,
sound/2star.wav,,audio-keyboard-response,125,298750,0.0-7.0-1.19,dynamic,"3,1,2,6",S011,M,10,20/10/2008,10/5/19,English,C243070,,,null,2,227,
,0,html-button-response,126,299394,0.0-7.0-0.20,dynamic,"3,1,2,6",S011,M,10,20/10/2008,10/5/19,English,C243070,,,,,,
sound/3star.wav,,audio-keyboard-response,127,300900,0.0-7.0-1.20,dynamic,"3,1,2,6",S011,M,10,20/10/2008,10/5/19,English,C243070,,,null,3,230,
,3,html-button-response,128,302861,0.0-7.0-0.21,dynamic,"3,1,2,6",S011,M,10,20/10/2008,10/5/19,English,C243070,,,,,,
sound/6star.wav,,audio-keyboard-response,129,304366,0.0-7.0-1.21,dynamic,"3,1,2,6",S011,M,10,20/10/2008,10/5/19,English,C243070,,,null,6,236,
,1,html-button-response,130,305604,0.0-7.0-0.22,dynamic,"3,1,2,6",S011,M,10,20/10/2008,10/5/19,English,C243070,,,,,,
sound/8star.wav,,audio-keyboard-response,131,307110,0.0-7.0-1.22,dynamic,"3,1,2,6",S011,M,10,20/10/2008,10/5/19,English,C243070,,,null,8,244,
,0,html-button-response,132,308962,0.0-7.0-0.23,dynamic,"3,1,2,6",S011,M,10,20/10/2008,10/5/19,English,C243070,,,,,,
sound/3star.wav,,audio-keyboard-response,133,310467,0.0-7.0-1.23,dynamic,"3,1,2,6",S011,M,10,20/10/2008,10/5/19,English,C243070,,,null,3,247,
,3,html-button-response,134,310968,0.0-7.0-0.24,dynamic,"3,1,2,6",S011,M,10,20/10/2008,10/5/19,English,C243070,,,,,,
sound/6star.wav,,audio-keyboard-response,135,312474,0.0-7.0-1.24,dynamic,"3,1,2,6",S011,M,10,20/10/2008,10/5/19,English,C243070,,,null,6,253,
,1,html-button-response,136,313036,0.0-7.0-0.25,dynamic,"3,1,2,6",S011,M,10,20/10/2008,10/5/19,English,C243070,,,,,,
sound/8star.wav,,audio-keyboard-response,137,314543,0.0-7.0-1.25,dynamic,"3,1,2,6",S011,M,10,20/10/2008,10/5/19,English,C243070,,,null,8,261,
,2,html-button-response,138,315446,0.0-7.0-0.26,dynamic,"3,1,2,6",S011,M,10,20/10/2008,10/5/19,English,C243070,,,,,,
sound/2star.wav,,audio-keyboard-response,139,316956,0.0-7.0-1.26,dynamic,"3,1,2,6",S011,M,10,20/10/2008,10/5/19,English,C243070,,,null,2,263,
,1,html-button-response,140,317630,0.0-7.0-0.27,dynamic,"3,1,2,6",S011,M,10,20/10/2008,10/5/19,English,C243070,,,,,,
sound/8star.wav,,audio-keyboard-response,141,319136,0.0-7.0-1.27,dynamic,"3,1,2,6",S011,M,10,20/10/2008,10/5/19,English,C243070,,,null,8,271,
,3,html-button-response,142,320223,0.0-7.0-0.28,dynamic,"3,1,2,6",S011,M,10,20/10/2008,10/5/19,English,C243070,,,,,,
sound/6star.wav,,audio-keyboard-response,143,321728,0.0-7.0-1.28,dynamic,"3,1,2,6",S011,M,10,20/10/2008,10/5/19,English,C243070,,,null,6,277,
,0,html-button-response,144,323112,0.0-7.0-0.29,dynamic,"3,1,2,6",S011,M,10,20/10/2008,10/5/19,English,C243070,,,,,,
sound/3star.wav,,audio-keyboard-response,145,324617,0.0-7.0-1.29,dynamic,"3,1,2,6",S011,M,10,20/10/2008,10/5/19,English,C243070,,,null,3,280,
,1,html-button-response,146,341131,0.0-7.0-0.30,dynamic,"3,1,2,6",S011,M,10,20/10/2008,10/5/19,English,C243070,,,,,,
sound/8star.wav,,audio-keyboard-response,147,342637,0.0-7.0-1.30,dynamic,"3,1,2,6",S011,M,10,20/10/2008,10/5/19,English,C243070,,,null,8,288,
,2,html-button-response,148,345087,0.0-7.0-0.31,dynamic,"3,1,2,6",S011,M,10,20/10/2008,10/5/19,English,C243070,,,,,,
sound/2star.wav,,audio-keyboard-response,149,346594,0.0-7.0-1.31,dynamic,"3,1,2,6",S011,M,10,20/10/2008,10/5/19,English,C243070,,,null,2,290,
,0,html-button-response,150,348562,0.0-7.0-0.32,dynamic,"3,1,2,6",S011,M,10,20/10/2008,10/5/19,English,C243070,,,,,,
sound/3star.wav,,audio-keyboard-response,151,350068,0.0-7.0-1.32,dynamic,"3,1,2,6",S011,M,10,20/10/2008,10/5/19,English,C243070,,,null,3,293,
,3,html-button-response,152,350780,0.0-7.0-0.33,dynamic,"3,1,2,6",S011,M,10,20/10/2008,10/5/19,English,C243070,,,,,,
sound/6star.wav,,audio-keyboard-response,153,352285,0.0-7.0-1.33,dynamic,"3,1,2,6",S011,M,10,20/10/2008,10/5/19,English,C243070,,,null,6,299,
,2,html-button-response,154,353146,0.0-7.0-0.34,dynamic,"3,1,2,6",S011,M,10,20/10/2008,10/5/19,English,C243070,,,,,,
sound/2star.wav,,audio-keyboard-response,155,354652,0.0-7.0-1.34,dynamic,"3,1,2,6",S011,M,10,20/10/2008,10/5/19,English,C243070,,,null,2,301,
,3,html-button-response,156,355447,0.0-7.0-0.35,dynamic,"3,1,2,6",S011,M,10,20/10/2008,10/5/19,English,C243070,,,,,,
sound/6star.wav,,audio-keyboard-response,157,356956,0.0-7.0-1.35,dynamic,"3,1,2,6",S011,M,10,20/10/2008,10/5/19,English,C243070,,,null,6,307,
,1,html-button-response,158,357803,0.0-7.0-0.36,dynamic,"3,1,2,6",S011,M,10,20/10/2008,10/5/19,English,C243070,,,,,,
sound/8star.wav,,audio-keyboard-response,159,359309,0.0-7.0-1.36,dynamic,"3,1,2,6",S011,M,10,20/10/2008,10/5/19,English,C243070,,,null,8,315,
,0,html-button-response,160,363413,0.0-7.0-0.37,dynamic,"3,1,2,6",S011,M,10,20/10/2008,10/5/19,English,C243070,,,,,,
sound/3star.wav,,audio-keyboard-response,161,364919,0.0-7.0-1.37,dynamic,"3,1,2,6",S011,M,10,20/10/2008,10/5/19,English,C243070,,,null,3,318,
,3,html-button-response,162,365643,0.0-7.0-0.38,dynamic,"3,1,2,6",S011,M,10,20/10/2008,10/5/19,English,C243070,,,,,,
sound/6star.wav,,audio-keyboard-response,163,367150,0.0-7.0-1.38,dynamic,"3,1,2,6",S011,M,10,20/10/2008,10/5/19,English,C243070,,,null,6,324,
,0,html-button-response,164,368093,0.0-7.0-0.39,dynamic,"3,1,2,6",S011,M,10,20/10/2008,10/5/19,English,C243070,,,,,,
sound/3star.wav,,audio-keyboard-response,165,369599,0.0-7.0-1.39,dynamic,"3,1,2,6",S011,M,10,20/10/2008,10/5/19,English,C243070,,,null,3,327,
sound/celebration.wav,0,audio-button-response,166,396196,0.0-8.0,dynamic,"3,1,2,6",S011,M,10,20/10/2008,10/5/19,English,C243070,,,,,,
"Which, if any, of these monsters ever gave you <b>1 star</b>?</p>",1,html-button-response,167,427292,0.0-9.0-0.0,dynamic,"3,1,2,6",S011,M,10,20/10/2008,10/5/19,English,C243070,,,,,,correct
"Which, if any, of these monsters ever gave you <b>2 stars</b>?</p>",2,html-button-response,168,433903,0.0-10.0-0.0,dynamic,"3,1,2,6",S011,M,10,20/10/2008,10/5/19,English,C243070,,,,,,correct
"Which, if any, of these monsters ever gave you <b>3 stars</b>?</p>",0,html-button-response,169,445926,0.0-11.0-0.0,dynamic,"3,1,2,6",S011,M,10,20/10/2008,10/5/19,English,C243070,,,,,,correct
"Which, if any, of these monsters ever gave you <b>6 stars</b>?</p>",3,html-button-response,170,453559,0.0-12.0-0.0,dynamic,"3,1,2,6",S011,M,10,20/10/2008,10/5/19,English,C243070,,,,,,correct
"Which, if any, of these monsters ever gave you <b>8 stars</b>?</p>",1,html-button-response,171,473852,0.0-13.0-0.0,dynamic,"3,1,2,6",S011,M,10,20/10/2008,10/5/19,English,C243070,,,,,,correct
Which monster did you like the most?</p>,3,html-button-response,172,485914,0.0-14.0-0.0,dynamic,"3,1,2,6",S011,M,10,20/10/2008,10/5/19,English,C243070,,,,,,
,,survey-text,173,514553,0.0-15.0,dynamic,"3,1,2,6",S011,M,10,20/10/2008,10/5/19,English,C243070,,"{""Q0"":""It has horns and a lot of things like sharp teeth and a few other things that the other monsters didn‰Ûªt have""}",,,,
stimulus,button_pressed,trial_type,trial_index,time_elapsed,internal_node_id,condition,pointvals_firsthalf,subjID,gender,age,dob,dot,language,turkID,animation_sequence,responses,key_press,earnedThis,earnedCumulative,posttest
,0,html-button-response,0,20565,0.0-0.0,dynamic,"6,1,3,2",I064,,,,,,C814619,,,,,,
,,animation,1,32578,0.0-1.0,dynamic,"6,1,3,2",I064,,,,,,C814619,"[{""stimulus"":""img/screen1a.png"",""time"":3009},{""stimulus"":""img/screen1b.png"",""time"":6011},{""stimulus"":""img/screen1c.png"",""time"":9010}]",[],,,,
<img src='img/screen1d.png'></img>,0,html-button-response,2,34014,0.0-2.0,dynamic,"6,1,3,2",I064,,,,,,C814619,,,,,,
,,animation,3,54817,0.0-3.0,dynamic,"6,1,3,2",I064,,,,,,C814619,"[{""stimulus"":""img/screen2.jpg"",""time"":801},{""stimulus"":""img/screen2.jpg"",""time"":1603},{""stimulus"":""img/screen2.jpg"",""time"":2403},{""stimulus"":""img/screen2.jpg"",""time"":3210},{""stimulus"":""img/screen2.jpg"",""time"":4001},{""stimulus"":""img/screen3a.jpg"",""time"":4804},{""stimulus"":""img/screen3b.jpg"",""time"":5606},{""stimulus"":""img/screen3c.jpg"",""time"":6407},{""stimulus"":""img/screen3d.jpg"",""time"":7207},{""stimulus"":""img/screen4a.jpg"",""time"":8002},{""stimulus"":""img/screen4a.jpg"",""time"":8802},{""stimulus"":""img/screen4b.jpg"",""time"":9605},{""stimulus"":""img/screen4c.jpg"",""time"":10406},{""stimulus"":""img/screen4d.jpg"",""time"":11206},{""stimulus"":""img/screen4d.jpg"",""time"":12002},{""stimulus"":""img/screen5a.jpg"",""time"":12802},{""stimulus"":""img/screen5b1.jpg"",""time"":13606},{""stimulus"":""img/screen5b2.jpg"",""time"":14406},{""stimulus"":""img/screen5b3.jpg"",""time"":15204},{""stimulus"":""img/screen5b4.jpg"",""time"":16003},{""stimulus"":""img/screen5b5.jpg"",""time"":16801},{""stimulus"":""img/screen5b6.jpg"",""time"":17607},{""stimulus"":""img/screen5c.jpg"",""time"":18407},{""stimulus"":""img/screen5d.jpg"",""time"":19206},{""stimulus"":""img/screen5d.jpg"",""time"":20002}]",[],,,,
<img src='img/screen5e.jpg'></img>,0,html-button-response,4,58711,0.0-4.0,dynamic,"6,1,3,2",I064,,,,,,C814619,,,,,,
<p align='center'></p>,0,html-button-response,5,82590,0.0-5.0,dynamic,"6,1,3,2",I064,,,,,,C814619,,,,,,
,3,html-button-response,6,88952,0.0-6.0-0.0,dynamic,"6,1,3,2",I064,,,,,,C814619,,,,,,
sound/2star.wav,,audio-keyboard-response,7,90458,0.0-6.0-1.0,dynamic,"6,1,3,2",I064,,,,,,C814619,,,null,2,2,
,0,html-button-response,8,93766,0.0-6.0-0.1,dynamic,"6,1,3,2",I064,,,,,,C814619,,,,,,
sound/6star.wav,,audio-keyboard-response,9,95272,0.0-6.0-1.1,dynamic,"6,1,3,2",I064,,,,,,C814619,,,null,6,8,
,1,html-button-response,10,99458,0.0-6.0-0.2,dynamic,"6,1,3,2",I064,,,,,,C814619,,,,,,
sound/1star.wav,,audio-keyboard-response,11,100962,0.0-6.0-1.2,dynamic,"6,1,3,2",I064,,,,,,C814619,,,null,1,9,
,2,html-button-response,12,103983,0.0-6.0-0.3,dynamic,"6,1,3,2",I064,,,,,,C814619,,,,,,
sound/3star.wav,,audio-keyboard-response,13,105488,0.0-6.0-1.3,dynamic,"6,1,3,2",I064,,,,,,C814619,,,null,3,12,
,0,html-button-response,14,108008,0.0-6.0-0.4,dynamic,"6,1,3,2",I064,,,,,,C814619,,,,,,
sound/6star.wav,,audio-keyboard-response,15,109511,0.0-6.0-1.4,dynamic,"6,1,3,2",I064,,,,,,C814619,,,null,6,18,
,3,html-button-response,16,112546,0.0-6.0-0.5,dynamic,"6,1,3,2",I064,,,,,,C814619,,,,,,
sound/2star.wav,,audio-keyboard-response,17,114050,0.0-6.0-1.5,dynamic,"6,1,3,2",I064,,,,,,C814619,,,null,2,20,
,2,html-button-response,18,116075,0.0-6.0-0.6,dynamic,"6,1,3,2",I064,,,,,,C814619,,,,,,
sound/3star.wav,,audio-keyboard-response,19,117579,0.0-6.0-1.6,dynamic,"6,1,3,2",I064,,,,,,C814619,,,null,3,23,
,1,html-button-response,20,119058,0.0-6.0-0.7,dynamic,"6,1,3,2",I064,,,,,,C814619,,,,,,
sound/1star.wav,,audio-keyboard-response,21,120562,0.0-6.0-1.7,dynamic,"6,1,3,2",I064,,,,,,C814619,,,null,1,24,
,0,html-button-response,22,122674,0.0-6.0-0.8,dynamic,"6,1,3,2",I064,,,,,,C814619,,,,,,
sound/6star.wav,,audio-keyboard-response,23,124182,0.0-6.0-1.8,dynamic,"6,1,3,2",I064,,,,,,C814619,,,null,6,30,
,3,html-button-response,24,127504,0.0-6.0-0.9,dynamic,"6,1,3,2",I064,,,,,,C814619,,,,,,
sound/2star.wav,,audio-keyboard-response,25,129009,0.0-6.0-1.9,dynamic,"6,1,3,2",I064,,,,,,C814619,,,null,2,32,
,1,html-button-response,26,130646,0.0-6.0-0.10,dynamic,"6,1,3,2",I064,,,,,,C814619,,,,,,
sound/1star.wav,,audio-keyboard-response,27,132149,0.0-6.0-1.10,dynamic,"6,1,3,2",I064,,,,,,C814619,,,null,1,33,
,0,html-button-response,28,134616,0.0-6.0-0.11,dynamic,"6,1,3,2",I064,,,,,,C814619,,,,,,
sound/6star.wav,,audio-keyboard-response,29,136120,0.0-6.0-1.11,dynamic,"6,1,3,2",I064,,,,,,C814619,,,null,6,39,
,2,html-button-response,30,137694,0.0-6.0-0.12,dynamic,"6,1,3,2",I064,,,,,,C814619,,,,,,
sound/3star.wav,,audio-keyboard-response,31,139201,0.0-6.0-1.12,dynamic,"6,1,3,2",I064,,,,,,C814619,,,null,3,42,
,3,html-button-response,32,140716,0.0-6.0-0.13,dynamic,"6,1,3,2",I064,,,,,,C814619,,,,,,
sound/2star.wav,,audio-keyboard-response,33,142219,0.0-6.0-1.13,dynamic,"6,1,3,2",I064,,,,,,C814619,,,null,2,44,
,1,html-button-response,34,143882,0.0-6.0-0.14,dynamic,"6,1,3,2",I064,,,,,,C814619,,,,,,
sound/1star.wav,,audio-keyboard-response,35,145386,0.0-6.0-1.14,dynamic,"6,1,3,2",I064,,,,,,C814619,,,null,1,45,
,2,html-button-response,36,146615,0.0-6.0-0.15,dynamic,"6,1,3,2",I064,,,,,,C814619,,,,,,
sound/3star.wav,,audio-keyboard-response,37,148120,0.0-6.0-1.15,dynamic,"6,1,3,2",I064,,,,,,C814619,,,null,3,48,
,3,html-button-response,38,149266,0.0-6.0-0.16,dynamic,"6,1,3,2",I064,,,,,,C814619,,,,,,
sound/2star.wav,,audio-keyboard-response,39,150769,0.0-6.0-1.16,dynamic,"6,1,3,2",I064,,,,,,C814619,,,null,2,50,
,0,html-button-response,40,153227,0.0-6.0-0.17,dynamic,"6,1,3,2",I064,,,,,,C814619,,,,,,
sound/6star.wav,,audio-keyboard-response,41,154743,0.0-6.0-1.17,dynamic,"6,1,3,2",I064,,,,,,C814619,,,null,6,56,
,3,html-button-response,42,158706,0.0-6.0-0.18,dynamic,"6,1,3,2",I064,,,,,,C814619,,,,,,
sound/2star.wav,,audio-keyboard-response,43,160210,0.0-6.0-1.18,dynamic,"6,1,3,2",I064,,,,,,C814619,,,null,2,58,
,1,html-button-response,44,162466,0.0-6.0-0.19,dynamic,"6,1,3,2",I064,,,,,,C814619,,,,,,
sound/1star.wav,,audio-keyboard-response,45,163970,0.0-6.0-1.19,dynamic,"6,1,3,2",I064,,,,,,C814619,,,null,1,59,
,2,html-button-response,46,165755,0.0-6.0-0.20,dynamic,"6,1,3,2",I064,,,,,,C814619,,,,,,
sound/3star.wav,,audio-keyboard-response,47,167259,0.0-6.0-1.20,dynamic,"6,1,3,2",I064,,,,,,C814619,,,null,3,62,
,0,html-button-response,48,169394,0.0-6.0-0.21,dynamic,"6,1,3,2",I064,,,,,,C814619,,,,,,
sound/6star.wav,,audio-keyboard-response,49,170902,0.0-6.0-1.21,dynamic,"6,1,3,2",I064,,,,,,C814619,,,null,6,68,
,3,html-button-response,50,172449,0.0-6.0-0.22,dynamic,"6,1,3,2",I064,,,,,,C814619,,,,,,
sound/2star.wav,,audio-keyboard-response,51,173963,0.0-6.0-1.22,dynamic,"6,1,3,2",I064,,,,,,C814619,,,null,2,70,
,1,html-button-response,52,174813,0.0-6.0-0.23,dynamic,"6,1,3,2",I064,,,,,,C814619,,,,,,
sound/1star.wav,,audio-keyboard-response,53,176317,0.0-6.0-1.23,dynamic,"6,1,3,2",I064,,,,,,C814619,,,null,1,71,
,2,html-button-response,54,177128,0.0-6.0-0.24,dynamic,"6,1,3,2",I064,,,,,,C814619,,,,,,
sound/3star.wav,,audio-keyboard-response,55,178631,0.0-6.0-1.24,dynamic,"6,1,3,2",I064,,,,,,C814619,,,null,3,74,
,3,html-button-response,56,179653,0.0-6.0-0.25,dynamic,"6,1,3,2",I064,,,,,,C814619,,,,,,
sound/2star.wav,,audio-keyboard-response,57,181158,0.0-6.0-1.25,dynamic,"6,1,3,2",I064,,,,,,C814619,,,null,2,76,
,1,html-button-response,58,183045,0.0-6.0-0.26,dynamic,"6,1,3,2",I064,,,,,,C814619,,,,,,
sound/1star.wav,,audio-keyboard-response,59,184553,0.0-6.0-1.26,dynamic,"6,1,3,2",I064,,,,,,C814619,,,null,1,77,
,0,html-button-response,60,185489,0.0-6.0-0.27,dynamic,"6,1,3,2",I064,,,,,,C814619,,,,,,
sound/6star.wav,,audio-keyboard-response,61,186993,0.0-6.0-1.27,dynamic,"6,1,3,2",I064,,,,,,C814619,,,null,6,83,
,3,html-button-response,62,189898,0.0-6.0-0.28,dynamic,"6,1,3,2",I064,,,,,,C814619,,,,,,
sound/2star.wav,,audio-keyboard-response,63,191403,0.0-6.0-1.28,dynamic,"6,1,3,2",I064,,,,,,C814619,,,null,2,85,
,2,html-button-response,64,192716,0.0-6.0-0.29,dynamic,"6,1,3,2",I064,,,,,,C814619,,,,,,
sound/3star.wav,,audio-keyboard-response,65,194228,0.0-6.0-1.29,dynamic,"6,1,3,2",I064,,,,,,C814619,,,null,3,88,
,1,html-button-response,66,195294,0.0-6.0-0.30,dynamic,"6,1,3,2",I064,,,,,,C814619,,,,,,
sound/1star.wav,,audio-keyboard-response,67,196797,0.0-6.0-1.30,dynamic,"6,1,3,2",I064,,,,,,C814619,,,null,1,89,
,0,html-button-response,68,197800,0.0-6.0-0.31,dynamic,"6,1,3,2",I064,,,,,,C814619,,,,,,
sound/6star.wav,,audio-keyboard-response,69,199304,0.0-6.0-1.31,dynamic,"6,1,3,2",I064,,,,,,C814619,,,null,6,95,
,3,html-button-response,70,208973,0.0-6.0-0.32,dynamic,"6,1,3,2",I064,,,,,,C814619,,,,,,
sound/2star.wav,,audio-keyboard-response,71,210477,0.0-6.0-1.32,dynamic,"6,1,3,2",I064,,,,,,C814619,,,null,2,97,
,0,html-button-response,72,212716,0.0-6.0-0.33,dynamic,"6,1,3,2",I064,,,,,,C814619,,,,,,
sound/6star.wav,,audio-keyboard-response,73,214231,0.0-6.0-1.33,dynamic,"6,1,3,2",I064,,,,,,C814619,,,null,6,103,
,0,html-button-response,74,215675,0.0-6.0-0.34,dynamic,"6,1,3,2",I064,,,,,,C814619,,,,,,
sound/6star.wav,,audio-keyboard-response,75,217180,0.0-6.0-1.34,dynamic,"6,1,3,2",I064,,,,,,C814619,,,null,6,109,
,2,html-button-response,76,218402,0.0-6.0-0.35,dynamic,"6,1,3,2",I064,,,,,,C814619,,,,,,
sound/3star.wav,,audio-keyboard-response,77,219907,0.0-6.0-1.35,dynamic,"6,1,3,2",I064,,,,,,C814619,,,null,3,112,
,1,html-button-response,78,221169,0.0-6.0-0.36,dynamic,"6,1,3,2",I064,,,,,,C814619,,,,,,
sound/1star.wav,,audio-keyboard-response,79,222675,0.0-6.0-1.36,dynamic,"6,1,3,2",I064,,,,,,C814619,,,null,1,113,
,3,html-button-response,80,223521,0.0-6.0-0.37,dynamic,"6,1,3,2",I064,,,,,,C814619,,,,,,
sound/2star.wav,,audio-keyboard-response,81,225025,0.0-6.0-1.37,dynamic,"6,1,3,2",I064,,,,,,C814619,,,null,2,115,
,1,html-button-response,82,226752,0.0-6.0-0.38,dynamic,"6,1,3,2",I064,,,,,,C814619,,,,,,
sound/1star.wav,,audio-keyboard-response,83,228257,0.0-6.0-1.38,dynamic,"6,1,3,2",I064,,,,,,C814619,,,null,1,116,
,3,html-button-response,84,230316,0.0-6.0-0.39,dynamic,"6,1,3,2",I064,,,,,,C814619,,,,,,
sound/2star.wav,,audio-keyboard-response,85,231826,0.0-6.0-1.39,dynamic,"6,1,3,2",I064,,,,,,C814619,,,null,2,118,
,2,html-button-response,86,233277,0.0-7.0-0.0,dynamic,"6,1,3,2",I064,,,,,,C814619,,,,,,
sound/3star.wav,,audio-keyboard-response,87,234781,0.0-7.0-1.0,dynamic,"6,1,3,2",I064,,,,,,C814619,,,null,3,121,
,0,html-button-response,88,236076,0.0-7.0-0.1,dynamic,"6,1,3,2",I064,,,,,,C814619,,,,,,
sound/6star.wav,,audio-keyboard-response,89,237581,0.0-7.0-1.1,dynamic,"6,1,3,2",I064,,,,,,C814619,,,null,6,127,
,3,html-button-response,90,239219,0.0-7.0-0.2,dynamic,"6,1,3,2",I064,,,,,,C814619,,,,,,
sound/2star.wav,,audio-keyboard-response,91,240722,0.0-7.0-1.2,dynamic,"6,1,3,2",I064,,,,,,C814619,,,null,2,129,
,1,html-button-response,92,241883,0.0-7.0-0.3,dynamic,"6,1,3,2",I064,,,,,,C814619,,,,,,
sound/8star.wav,,audio-keyboard-response,93,243386,0.0-7.0-1.3,dynamic,"6,1,3,2",I064,,,,,,C814619,,,null,8,137,
,2,html-button-response,94,245436,0.0-7.0-0.4,dynamic,"6,1,3,2",I064,,,,,,C814619,,,,,,
sound/3star.wav,,audio-keyboard-response,95,246939,0.0-7.0-1.4,dynamic,"6,1,3,2",I064,,,,,,C814619,,,null,3,140,
,3,html-button-response,96,248204,0.0-7.0-0.5,dynamic,"6,1,3,2",I064,,,,,,C814619,,,,,,
sound/2star.wav,,audio-keyboard-response,97,249710,0.0-7.0-1.5,dynamic,"6,1,3,2",I064,,,,,,C814619,,,null,2,142,
,0,html-button-response,98,250870,0.0-7.0-0.6,dynamic,"6,1,3,2",I064,,,,,,C814619,,,,,,
sound/6star.wav,,audio-keyboard-response,99,252373,0.0-7.0-1.6,dynamic,"6,1,3,2",I064,,,,,,C814619,,,null,6,148,
,1,html-button-response,100,254458,0.0-7.0-0.7,dynamic,"6,1,3,2",I064,,,,,,C814619,,,,,,
sound/8star.wav,,audio-keyboard-response,101,255976,0.0-7.0-1.7,dynamic,"6,1,3,2",I064,,,,,,C814619,,,null,8,156,
,2,html-button-response,102,257164,0.0-7.0-0.8,dynamic,"6,1,3,2",I064,,,,,,C814619,,,,,,
sound/3star.wav,,audio-keyboard-response,103,258667,0.0-7.0-1.8,dynamic,"6,1,3,2",I064,,,,,,C814619,,,null,3,159,
,3,html-button-response,104,259683,0.0-7.0-0.9,dynamic,"6,1,3,2",I064,,,,,,C814619,,,,,,
sound/2star.wav,,audio-keyboard-response,105,261186,0.0-7.0-1.9,dynamic,"6,1,3,2",I064,,,,,,C814619,,,null,2,161,
,1,html-button-response,106,262297,0.0-7.0-0.10,dynamic,"6,1,3,2",I064,,,,,,C814619,,,,,,
sound/8star.wav,,audio-keyboard-response,107,263800,0.0-7.0-1.10,dynamic,"6,1,3,2",I064,,,,,,C814619,,,null,8,169,
,0,html-button-response,108,264945,0.0-7.0-0.11,dynamic,"6,1,3,2",I064,,,,,,C814619,,,,,,
sound/6star.wav,,audio-keyboard-response,109,266451,0.0-7.0-1.11,dynamic,"6,1,3,2",I064,,,,,,C814619,,,null,6,175,
,3,html-button-response,110,267568,0.0-7.0-0.12,dynamic,"6,1,3,2",I064,,,,,,C814619,,,,,,
sound/2star.wav,,audio-keyboard-response,111,269076,0.0-7.0-1.12,dynamic,"6,1,3,2",I064,,,,,,C814619,,,null,2,177,
,1,html-button-response,112,269834,0.0-7.0-0.13,dynamic,"6,1,3,2",I064,,,,,,C814619,,,,,,
sound/8star.wav,,audio-keyboard-response,113,271337,0.0-7.0-1.13,dynamic,"6,1,3,2",I064,,,,,,C814619,,,null,8,185,
,2,html-button-response,114,272315,0.0-7.0-0.14,dynamic,"6,1,3,2",I064,,,,,,C814619,,,,,,
sound/3star.wav,,audio-keyboard-response,115,273819,0.0-7.0-1.14,dynamic,"6,1,3,2",I064,,,,,,C814619,,,null,3,188,
,1,html-button-response,116,279878,0.0-7.0-0.15,dynamic,"6,1,3,2",I064,,,,,,C814619,,,,,,
sound/8star.wav,,audio-keyboard-response,117,281381,0.0-7.0-1.15,dynamic,"6,1,3,2",I064,,,,,,C814619,,,null,8,196,
,3,html-button-response,118,282698,0.0-7.0-0.16,dynamic,"6,1,3,2",I064,,,,,,C814619,,,,,,
sound/2star.wav,,audio-keyboard-response,119,284201,0.0-7.0-1.16,dynamic,"6,1,3,2",I064,,,,,,C814619,,,null,2,198,
,0,html-button-response,120,285257,0.0-7.0-0.17,dynamic,"6,1,3,2",I064,,,,,,C814619,,,,,,
sound/6star.wav,,audio-keyboard-response,121,286760,0.0-7.0-1.17,dynamic,"6,1,3,2",I064,,,,,,C814619,,,null,6,204,
,2,html-button-response,122,287760,0.0-7.0-0.18,dynamic,"6,1,3,2",I064,,,,,,C814619,,,,,,
sound/3star.wav,,audio-keyboard-response,123,289263,0.0-7.0-1.18,dynamic,"6,1,3,2",I064,,,,,,C814619,,,null,3,207,
,2,html-button-response,124,290737,0.0-7.0-0.19,dynamic,"6,1,3,2",I064,,,,,,C814619,,,,,,
sound/3star.wav,,audio-keyboard-response,125,292242,0.0-7.0-1.19,dynamic,"6,1,3,2",I064,,,,,,C814619,,,null,3,210,
,3,html-button-response,126,293369,0.0-7.0-0.20,dynamic,"6,1,3,2",I064,,,,,,C814619,,,,,,
sound/2star.wav,,audio-keyboard-response,127,294874,0.0-7.0-1.20,dynamic,"6,1,3,2",I064,,,,,,C814619,,,null,2,212,
,0,html-button-response,128,295782,0.0-7.0-0.21,dynamic,"6,1,3,2",I064,,,,,,C814619,,,,,,
sound/6star.wav,,audio-keyboard-response,129,297286,0.0-7.0-1.21,dynamic,"6,1,3,2",I064,,,,,,C814619,,,null,6,218,
,1,html-button-response,130,298207,0.0-7.0-0.22,dynamic,"6,1,3,2",I064,,,,,,C814619,,,,,,
sound/8star.wav,,audio-keyboard-response,131,299712,0.0-7.0-1.22,dynamic,"6,1,3,2",I064,,,,,,C814619,,,null,8,226,
,2,html-button-response,132,300911,0.0-7.0-0.23,dynamic,"6,1,3,2",I064,,,,,,C814619,,,,,,
sound/3star.wav,,audio-keyboard-response,133,302418,0.0-7.0-1.23,dynamic,"6,1,3,2",I064,,,,,,C814619,,,null,3,229,
,3,html-button-response,134,303625,0.0-7.0-0.24,dynamic,"6,1,3,2",I064,,,,,,C814619,,,,,,
sound/2star.wav,,audio-keyboard-response,135,305128,0.0-7.0-1.24,dynamic,"6,1,3,2",I064,,,,,,C814619,,,null,2,231,
,0,html-button-response,136,307124,0.0-7.0-0.25,dynamic,"6,1,3,2",I064,,,,,,C814619,,,,,,
sound/6star.wav,,audio-keyboard-response,137,308627,0.0-7.0-1.25,dynamic,"6,1,3,2",I064,,,,,,C814619,,,null,6,237,
,1,html-button-response,138,311469,0.0-7.0-0.26,dynamic,"6,1,3,2",I064,,,,,,C814619,,,,,,
sound/8star.wav,,audio-keyboard-response,139,312972,0.0-7.0-1.26,dynamic,"6,1,3,2",I064,,,,,,C814619,,,null,8,245,
,3,html-button-response,140,314172,0.0-7.0-0.27,dynamic,"6,1,3,2",I064,,,,,,C814619,,,,,,
sound/2star.wav,,audio-keyboard-response,141,315676,0.0-7.0-1.27,dynamic,"6,1,3,2",I064,,,,,,C814619,,,null,2,247,
,3,html-button-response,142,316385,0.0-7.0-0.28,dynamic,"6,1,3,2",I064,,,,,,C814619,,,,,,
sound/2star.wav,,audio-keyboard-response,143,317890,0.0-7.0-1.28,dynamic,"6,1,3,2",I064,,,,,,C814619,,,null,2,249,
,2,html-button-response,144,318664,0.0-7.0-0.29,dynamic,"6,1,3,2",I064,,,,,,C814619,,,,,,
sound/3star.wav,,audio-keyboard-response,145,320168,0.0-7.0-1.29,dynamic,"6,1,3,2",I064,,,,,,C814619,,,null,3,252,
,0,html-button-response,146,321142,0.0-7.0-0.30,dynamic,"6,1,3,2",I064,,,,,,C814619,,,,,,
sound/6star.wav,,audio-keyboard-response,147,322646,0.0-7.0-1.30,dynamic,"6,1,3,2",I064,,,,,,C814619,,,null,6,258,
,3,html-button-response,148,324016,0.0-7.0-0.31,dynamic,"6,1,3,2",I064,,,,,,C814619,,,,,,
sound/2star.wav,,audio-keyboard-response,149,325520,0.0-7.0-1.31,dynamic,"6,1,3,2",I064,,,,,,C814619,,,null,2,260,
,1,html-button-response,150,326916,0.0-7.0-0.32,dynamic,"6,1,3,2",I064,,,,,,C814619,,,,,,
sound/8star.wav,,audio-keyboard-response,151,328428,0.0-7.0-1.32,dynamic,"6,1,3,2",I064,,,,,,C814619,,,null,8,268,
,2,html-button-response,152,329932,0.0-7.0-0.33,dynamic,"6,1,3,2",I064,,,,,,C814619,,,,,,
sound/3star.wav,,audio-keyboard-response,153,331443,0.0-7.0-1.33,dynamic,"6,1,3,2",I064,,,,,,C814619,,,null,3,271,
,0,html-button-response,154,332822,0.0-7.0-0.34,dynamic,"6,1,3,2",I064,,,,,,C814619,,,,,,
sound/6star.wav,,audio-keyboard-response,155,334325,0.0-7.0-1.34,dynamic,"6,1,3,2",I064,,,,,,C814619,,,null,6,277,
,3,html-button-response,156,335522,0.0-7.0-0.35,dynamic,"6,1,3,2",I064,,,,,,C814619,,,,,,
sound/2star.wav,,audio-keyboard-response,157,337025,0.0-7.0-1.35,dynamic,"6,1,3,2",I064,,,,,,C814619,,,null,2,279,
,2,html-button-response,158,344442,0.0-7.0-0.36,dynamic,"6,1,3,2",I064,,,,,,C814619,,,,,,
sound/3star.wav,,audio-keyboard-response,159,345946,0.0-7.0-1.36,dynamic,"6,1,3,2",I064,,,,,,C814619,,,null,3,282,
,2,html-button-response,160,346967,0.0-7.0-0.37,dynamic,"6,1,3,2",I064,,,,,,C814619,,,,,,
sound/3star.wav,,audio-keyboard-response,161,348470,0.0-7.0-1.37,dynamic,"6,1,3,2",I064,,,,,,C814619,,,null,3,285,
,1,html-button-response,162,349293,0.0-7.0-0.38,dynamic,"6,1,3,2",I064,,,,,,C814619,,,,,,
sound/8star.wav,,audio-keyboard-response,163,350797,0.0-7.0-1.38,dynamic,"6,1,3,2",I064,,,,,,C814619,,,null,8,293,
,0,html-button-response,164,351896,0.0-7.0-0.39,dynamic,"6,1,3,2",I064,,,,,,C814619,,,,,,
sound/6star.wav,,audio-keyboard-response,165,353400,0.0-7.0-1.39,dynamic,"6,1,3,2",I064,,,,,,C814619,,,null,6,299,
sound/celebration.wav,0,audio-button-response,166,365684,0.0-8.0,dynamic,"6,1,3,2",I064,,,,,,C814619,,,,,,
"Which, if any, of these monsters ever gave you <b>1 star</b>?</p>",1,html-button-response,167,379710,0.0-9.0-0.0,dynamic,"6,1,3,2",I064,,,,,,C814619,,,,,,correct
"Which, if any, of these monsters ever gave you <b>2 stars</b>?</p>",3,html-button-response,168,386117,0.0-10.0-0.0,dynamic,"6,1,3,2",I064,,,,,,C814619,,,,,,correct
"Which, if any, of these monsters ever gave you <b>3 stars</b>?</p>",2,html-button-response,169,391130,0.0-11.0-0.0,dynamic,"6,1,3,2",I064,,,,,,C814619,,,,,,correct
"Which, if any, of these monsters ever gave you <b>6 stars</b>?</p>",0,html-button-response,170,395296,0.0-12.0-0.0,dynamic,"6,1,3,2",I064,,,,,,C814619,,,,,,correct
"Which, if any, of these monsters ever gave you <b>8 stars</b>?</p>",1,html-button-response,171,399808,0.0-13.0-0.0,dynamic,"6,1,3,2",I064,,,,,,C814619,,,,,,correct
Which monster did you like the most?</p>,2,html-button-response,172,407170,0.0-14.0-0.0,dynamic,"6,1,3,2",I064,,,,,,C814619,,,,,,
,,survey-text,173,430955,0.0-15.0,dynamic,"6,1,3,2",I064,,,,,,C814619,,"{""Q0"":""It's cute and I like turquoise""}",,,,
stimulus,button_pressed,trial_type,trial_index,time_elapsed,internal_node_id,condition,pointvals_firsthalf,subjID,gender,age,dob,dot,language,turkID,animation_sequence,responses,key_press,earnedThis,earnedCumulative,posttest
,0,html-button-response,0,46709,0.0-0.0,dynamic,"6,2,3,1",I052,,,,,,C325086,,,,,,
,,animation,1,58717,0.0-1.0,dynamic,"6,2,3,1",I052,,,,,,C325086,"[{""stimulus"":""img/screen1a.png"",""time"":3006},{""stimulus"":""img/screen1b.png"",""time"":6005},{""stimulus"":""img/screen1c.png"",""time"":9005}]",[],,,,
<img src='img/screen1d.png'></img>,0,html-button-response,2,61312,0.0-2.0,dynamic,"6,2,3,1",I052,,,,,,C325086,,,,,,
,,animation,3,82115,0.0-3.0,dynamic,"6,2,3,1",I052,,,,,,C325086,"[{""stimulus"":""img/screen2.jpg"",""time"":801},{""stimulus"":""img/screen2.jpg"",""time"":1602},{""stimulus"":""img/screen2.jpg"",""time"":2406},{""stimulus"":""img/screen2.jpg"",""time"":3206},{""stimulus"":""img/screen2.jpg"",""time"":4005},{""stimulus"":""img/screen3a.jpg"",""time"":4805},{""stimulus"":""img/screen3b.jpg"",""time"":5601},{""stimulus"":""img/screen3c.jpg"",""time"":6405},{""stimulus"":""img/screen3d.jpg"",""time"":7206},{""stimulus"":""img/screen4a.jpg"",""time"":8009},{""stimulus"":""img/screen4a.jpg"",""time"":8805},{""stimulus"":""img/screen4b.jpg"",""time"":9601},{""stimulus"":""img/screen4c.jpg"",""time"":10406},{""stimulus"":""img/screen4d.jpg"",""time"":11206},{""stimulus"":""img/screen4d.jpg"",""time"":12006},{""stimulus"":""img/screen5a.jpg"",""time"":12805},{""stimulus"":""img/screen5b1.jpg"",""time"":13601},{""stimulus"":""img/screen5b2.jpg"",""time"":14407},{""stimulus"":""img/screen5b3.jpg"",""time"":15206},{""stimulus"":""img/screen5b4.jpg"",""time"":16001},{""stimulus"":""img/screen5b5.jpg"",""time"":16805},{""stimulus"":""img/screen5b6.jpg"",""time"":17601},{""stimulus"":""img/screen5c.jpg"",""time"":18406},{""stimulus"":""img/screen5d.jpg"",""time"":19202},{""stimulus"":""img/screen5d.jpg"",""time"":20005}]",[],,,,
<img src='img/screen5e.jpg'></img>,0,html-button-response,4,89834,0.0-4.0,dynamic,"6,2,3,1",I052,,,,,,C325086,,,,,,
<p align='center'></p>,0,html-button-response,5,100371,0.0-5.0,dynamic,"6,2,3,1",I052,,,,,,C325086,,,,,,
,2,html-button-response,6,108536,0.0-6.0-0.0,dynamic,"6,2,3,1",I052,,,,,,C325086,,,,,,
sound/3star.wav,,audio-keyboard-response,7,110044,0.0-6.0-1.0,dynamic,"6,2,3,1",I052,,,,,,C325086,,,null,3,3,
,2,html-button-response,8,113206,0.0-6.0-0.1,dynamic,"6,2,3,1",I052,,,,,,C325086,,,,,,
sound/3star.wav,,audio-keyboard-response,9,114717,0.0-6.0-1.1,dynamic,"6,2,3,1",I052,,,,,,C325086,,,null,3,6,
,0,html-button-response,10,115702,0.0-6.0-0.2,dynamic,"6,2,3,1",I052,,,,,,C325086,,,,,,
sound/6star.wav,,audio-keyboard-response,11,117207,0.0-6.0-1.2,dynamic,"6,2,3,1",I052,,,,,,C325086,,,null,6,12,
,1,html-button-response,12,118503,0.0-6.0-0.3,dynamic,"6,2,3,1",I052,,,,,,C325086,,,,,,
sound/2star.wav,,audio-keyboard-response,13,120006,0.0-6.0-1.3,dynamic,"6,2,3,1",I052,,,,,,C325086,,,null,2,14,
,3,html-button-response,14,121032,0.0-6.0-0.4,dynamic,"6,2,3,1",I052,,,,,,C325086,,,,,,
sound/1star.wav,,audio-keyboard-response,15,122537,0.0-6.0-1.4,dynamic,"6,2,3,1",I052,,,,,,C325086,,,null,1,15,
,2,html-button-response,16,125342,0.0-6.0-0.5,dynamic,"6,2,3,1",I052,,,,,,C325086,,,,,,
sound/3star.wav,,audio-keyboard-response,17,126846,0.0-6.0-1.5,dynamic,"6,2,3,1",I052,,,,,,C325086,,,null,3,18,
,0,html-button-response,18,128094,0.0-6.0-0.6,dynamic,"6,2,3,1",I052,,,,,,C325086,,,,,,
sound/6star.wav,,audio-keyboard-response,19,129597,0.0-6.0-1.6,dynamic,"6,2,3,1",I052,,,,,,C325086,,,null,6,24,
,1,html-button-response,20,130555,0.0-6.0-0.7,dynamic,"6,2,3,1",I052,,,,,,C325086,,,,,,
sound/2star.wav,,audio-keyboard-response,21,132058,0.0-6.0-1.7,dynamic,"6,2,3,1",I052,,,,,,C325086,,,null,2,26,
,2,html-button-response,22,133249,0.0-6.0-0.8,dynamic,"6,2,3,1",I052,,,,,,C325086,,,,,,
sound/3star.wav,,audio-keyboard-response,23,134753,0.0-6.0-1.8,dynamic,"6,2,3,1",I052,,,,,,C325086,,,null,3,29,
,0,html-button-response,24,135685,0.0-6.0-0.9,dynamic,"6,2,3,1",I052,,,,,,C325086,,,,,,
sound/6star.wav,,audio-keyboard-response,25,137190,0.0-6.0-1.9,dynamic,"6,2,3,1",I052,,,,,,C325086,,,null,6,35,
,3,html-button-response,26,138216,0.0-6.0-0.10,dynamic,"6,2,3,1",I052,,,,,,C325086,,,,,,
sound/1star.wav,,audio-keyboard-response,27,139722,0.0-6.0-1.10,dynamic,"6,2,3,1",I052,,,,,,C325086,,,null,1,36,
,1,html-button-response,28,140664,0.0-6.0-0.11,dynamic,"6,2,3,1",I052,,,,,,C325086,,,,,,
sound/2star.wav,,audio-keyboard-response,29,142169,0.0-6.0-1.11,dynamic,"6,2,3,1",I052,,,,,,C325086,,,null,2,38,
,2,html-button-response,30,143143,0.0-6.0-0.12,dynamic,"6,2,3,1",I052,,,,,,C325086,,,,,,
sound/3star.wav,,audio-keyboard-response,31,144648,0.0-6.0-1.12,dynamic,"6,2,3,1",I052,,,,,,C325086,,,null,3,41,
,0,html-button-response,32,145462,0.0-6.0-0.13,dynamic,"6,2,3,1",I052,,,,,,C325086,,,,,,
sound/6star.wav,,audio-keyboard-response,33,146965,0.0-6.0-1.13,dynamic,"6,2,3,1",I052,,,,,,C325086,,,null,6,47,
,0,html-button-response,34,148088,0.0-6.0-0.14,dynamic,"6,2,3,1",I052,,,,,,C325086,,,,,,
sound/6star.wav,,audio-keyboard-response,35,149595,0.0-6.0-1.14,dynamic,"6,2,3,1",I052,,,,,,C325086,,,null,6,53,
,0,html-button-response,36,150592,0.0-6.0-0.15,dynamic,"6,2,3,1",I052,,,,,,C325086,,,,,,
sound/6star.wav,,audio-keyboard-response,37,152096,0.0-6.0-1.15,dynamic,"6,2,3,1",I052,,,,,,C325086,,,null,6,59,
,0,html-button-response,38,152947,0.0-6.0-0.16,dynamic,"6,2,3,1",I052,,,,,,C325086,,,,,,
sound/6star.wav,,audio-keyboard-response,39,154450,0.0-6.0-1.16,dynamic,"6,2,3,1",I052,,,,,,C325086,,,null,6,65,
,0,html-button-response,40,155754,0.0-6.0-0.17,dynamic,"6,2,3,1",I052,,,,,,C325086,,,,,,
sound/6star.wav,,audio-keyboard-response,41,157257,0.0-6.0-1.17,dynamic,"6,2,3,1",I052,,,,,,C325086,,,null,6,71,
,0,html-button-response,42,158266,0.0-6.0-0.18,dynamic,"6,2,3,1",I052,,,,,,C325086,,,,,,
sound/6star.wav,,audio-keyboard-response,43,159771,0.0-6.0-1.18,dynamic,"6,2,3,1",I052,,,,,,C325086,,,null,6,77,
,0,html-button-response,44,161375,0.0-6.0-0.19,dynamic,"6,2,3,1",I052,,,,,,C325086,,,,,,
sound/6star.wav,,audio-keyboard-response,45,162879,0.0-6.0-1.19,dynamic,"6,2,3,1",I052,,,,,,C325086,,,null,6,83,
,0,html-button-response,46,164408,0.0-6.0-0.20,dynamic,"6,2,3,1",I052,,,,,,C325086,,,,,,
sound/6star.wav,,audio-keyboard-response,47,165912,0.0-6.0-1.20,dynamic,"6,2,3,1",I052,,,,,,C325086,,,null,6,89,
,0,html-button-response,48,167132,0.0-6.0-0.21,dynamic,"6,2,3,1",I052,,,,,,C325086,,,,,,
sound/6star.wav,,audio-keyboard-response,49,168640,0.0-6.0-1.21,dynamic,"6,2,3,1",I052,,,,,,C325086,,,null,6,95,
,0,html-button-response,50,177872,0.0-6.0-0.22,dynamic,"6,2,3,1",I052,,,,,,C325086,,,,,,
sound/6star.wav,,audio-keyboard-response,51,179376,0.0-6.0-1.22,dynamic,"6,2,3,1",I052,,,,,,C325086,,,null,6,101,
,2,html-button-response,52,181532,0.0-6.0-0.23,dynamic,"6,2,3,1",I052,,,,,,C325086,,,,,,
sound/3star.wav,,audio-keyboard-response,53,183037,0.0-6.0-1.23,dynamic,"6,2,3,1",I052,,,,,,C325086,,,null,3,104,
,1,html-button-response,54,183871,0.0-6.0-0.24,dynamic,"6,2,3,1",I052,,,,,,C325086,,,,,,
sound/2star.wav,,audio-keyboard-response,55,185378,0.0-6.0-1.24,dynamic,"6,2,3,1",I052,,,,,,C325086,,,null,2,106,
,0,html-button-response,56,186212,0.0-6.0-0.25,dynamic,"6,2,3,1",I052,,,,,,C325086,,,,,,
sound/6star.wav,,audio-keyboard-response,57,187715,0.0-6.0-1.25,dynamic,"6,2,3,1",I052,,,,,,C325086,,,null,6,112,
,1,html-button-response,58,189076,0.0-6.0-0.26,dynamic,"6,2,3,1",I052,,,,,,C325086,,,,,,
sound/2star.wav,,audio-keyboard-response,59,190580,0.0-6.0-1.26,dynamic,"6,2,3,1",I052,,,,,,C325086,,,null,2,114,
,2,html-button-response,60,191331,0.0-6.0-0.27,dynamic,"6,2,3,1",I052,,,,,,C325086,,,,,,
sound/3star.wav,,audio-keyboard-response,61,192835,0.0-6.0-1.27,dynamic,"6,2,3,1",I052,,,,,,C325086,,,null,3,117,
,3,html-button-response,62,196091,0.0-6.0-0.28,dynamic,"6,2,3,1",I052,,,,,,C325086,,,,,,
sound/1star.wav,,audio-keyboard-response,63,197596,0.0-6.0-1.28,dynamic,"6,2,3,1",I052,,,,,,C325086,,,null,1,118,
,1,html-button-response,64,198423,0.0-6.0-0.29,dynamic,"6,2,3,1",I052,,,,,,C325086,,,,,,
sound/2star.wav,,audio-keyboard-response,65,199939,0.0-6.0-1.29,dynamic,"6,2,3,1",I052,,,,,,C325086,,,null,2,120,
,2,html-button-response,66,200706,0.0-6.0-0.30,dynamic,"6,2,3,1",I052,,,,,,C325086,,,,,,
sound/3star.wav,,audio-keyboard-response,67,202211,0.0-6.0-1.30,dynamic,"6,2,3,1",I052,,,,,,C325086,,,null,3,123,
,0,html-button-response,68,203079,0.0-6.0-0.31,dynamic,"6,2,3,1",I052,,,,,,C325086,,,,,,
sound/6star.wav,,audio-keyboard-response,69,204583,0.0-6.0-1.31,dynamic,"6,2,3,1",I052,,,,,,C325086,,,null,6,129,
,0,html-button-response,70,205724,0.0-6.0-0.32,dynamic,"6,2,3,1",I052,,,,,,C325086,,,,,,
sound/6star.wav,,audio-keyboard-response,71,207234,0.0-6.0-1.32,dynamic,"6,2,3,1",I052,,,,,,C325086,,,null,6,135,
,0,html-button-response,72,209011,0.0-6.0-0.33,dynamic,"6,2,3,1",I052,,,,,,C325086,,,,,,
sound/6star.wav,,audio-keyboard-response,73,210518,0.0-6.0-1.33,dynamic,"6,2,3,1",I052,,,,,,C325086,,,null,6,141,
,1,html-button-response,74,211555,0.0-6.0-0.34,dynamic,"6,2,3,1",I052,,,,,,C325086,,,,,,
sound/2star.wav,,audio-keyboard-response,75,213061,0.0-6.0-1.34,dynamic,"6,2,3,1",I052,,,,,,C325086,,,null,2,143,
,2,html-button-response,76,214058,0.0-6.0-0.35,dynamic,"6,2,3,1",I052,,,,,,C325086,,,,,,
sound/3star.wav,,audio-keyboard-response,77,215563,0.0-6.0-1.35,dynamic,"6,2,3,1",I052,,,,,,C325086,,,null,3,146,
,0,html-button-response,78,216320,0.0-6.0-0.36,dynamic,"6,2,3,1",I052,,,,,,C325086,,,,,,
sound/6star.wav,,audio-keyboard-response,79,217824,0.0-6.0-1.36,dynamic,"6,2,3,1",I052,,,,,,C325086,,,null,6,152,
,0,html-button-response,80,219049,0.0-6.0-0.37,dynamic,"6,2,3,1",I052,,,,,,C325086,,,,,,
sound/6star.wav,,audio-keyboard-response,81,220552,0.0-6.0-1.37,dynamic,"6,2,3,1",I052,,,,,,C325086,,,null,6,158,
,0,html-button-response,82,221763,0.0-6.0-0.38,dynamic,"6,2,3,1",I052,,,,,,C325086,,,,,,
sound/6star.wav,,audio-keyboard-response,83,223267,0.0-6.0-1.38,dynamic,"6,2,3,1",I052,,,,,,C325086,,,null,6,164,
,0,html-button-response,84,224501,0.0-6.0-0.39,dynamic,"6,2,3,1",I052,,,,,,C325086,,,,,,
sound/6star.wav,,audio-keyboard-response,85,226005,0.0-6.0-1.39,dynamic,"6,2,3,1",I052,,,,,,C325086,,,null,6,170,
,2,html-button-response,86,227367,0.0-7.0-0.0,dynamic,"6,2,3,1",I052,,,,,,C325086,,,,,,
sound/3star.wav,,audio-keyboard-response,87,228870,0.0-7.0-1.0,dynamic,"6,2,3,1",I052,,,,,,C325086,,,null,3,173,
,0,html-button-response,88,230238,0.0-7.0-0.1,dynamic,"6,2,3,1",I052,,,,,,C325086,,,,,,
sound/6star.wav,,audio-keyboard-response,89,231741,0.0-7.0-1.1,dynamic,"6,2,3,1",I052,,,,,,C325086,,,null,6,179,
,0,html-button-response,90,233197,0.0-7.0-0.2,dynamic,"6,2,3,1",I052,,,,,,C325086,,,,,,
sound/6star.wav,,audio-keyboard-response,91,234702,0.0-7.0-1.2,dynamic,"6,2,3,1",I052,,,,,,C325086,,,null,6,185,
,0,html-button-response,92,250843,0.0-7.0-0.3,dynamic,"6,2,3,1",I052,,,,,,C325086,,,,,,
sound/6star.wav,,audio-keyboard-response,93,252347,0.0-7.0-1.3,dynamic,"6,2,3,1",I052,,,,,,C325086,,,null,6,191,
,0,html-button-response,94,254119,0.0-7.0-0.4,dynamic,"6,2,3,1",I052,,,,,,C325086,,,,,,
sound/6star.wav,,audio-keyboard-response,95,255626,0.0-7.0-1.4,dynamic,"6,2,3,1",I052,,,,,,C325086,,,null,6,197,
,0,html-button-response,96,256747,0.0-7.0-0.5,dynamic,"6,2,3,1",I052,,,,,,C325086,,,,,,
sound/6star.wav,,audio-keyboard-response,97,258252,0.0-7.0-1.5,dynamic,"6,2,3,1",I052,,,,,,C325086,,,null,6,203,
,1,html-button-response,98,259665,0.0-7.0-0.6,dynamic,"6,2,3,1",I052,,,,,,C325086,,,,,,
sound/2star.wav,,audio-keyboard-response,99,261170,0.0-7.0-1.6,dynamic,"6,2,3,1",I052,,,,,,C325086,,,null,2,205,
,2,html-button-response,100,262474,0.0-7.0-0.7,dynamic,"6,2,3,1",I052,,,,,,C325086,,,,,,
sound/3star.wav,,audio-keyboard-response,101,263976,0.0-7.0-1.7,dynamic,"6,2,3,1",I052,,,,,,C325086,,,null,3,208,
,0,html-button-response,102,265318,0.0-7.0-0.8,dynamic,"6,2,3,1",I052,,,,,,C325086,,,,,,
sound/6star.wav,,audio-keyboard-response,103,266822,0.0-7.0-1.8,dynamic,"6,2,3,1",I052,,,,,,C325086,,,null,6,214,
,3,html-button-response,104,269301,0.0-7.0-0.9,dynamic,"6,2,3,1",I052,,,,,,C325086,,,,,,
sound/8star.wav,,audio-keyboard-response,105,270803,0.0-7.0-1.9,dynamic,"6,2,3,1",I052,,,,,,C325086,,,null,8,222,
,3,html-button-response,106,273438,0.0-7.0-0.10,dynamic,"6,2,3,1",I052,,,,,,C325086,,,,,,
sound/8star.wav,,audio-keyboard-response,107,274945,0.0-7.0-1.10,dynamic,"6,2,3,1",I052,,,,,,C325086,,,null,8,230,
,1,html-button-response,108,276074,0.0-7.0-0.11,dynamic,"6,2,3,1",I052,,,,,,C325086,,,,,,
sound/2star.wav,,audio-keyboard-response,109,277580,0.0-7.0-1.11,dynamic,"6,2,3,1",I052,,,,,,C325086,,,null,2,232,
,2,html-button-response,110,278481,0.0-7.0-0.12,dynamic,"6,2,3,1",I052,,,,,,C325086,,,,,,
sound/3star.wav,,audio-keyboard-response,111,279984,0.0-7.0-1.12,dynamic,"6,2,3,1",I052,,,,,,C325086,,,null,3,235,
,0,html-button-response,112,280842,0.0-7.0-0.13,dynamic,"6,2,3,1",I052,,,,,,C325086,,,,,,
sound/6star.wav,,audio-keyboard-response,113,282346,0.0-7.0-1.13,dynamic,"6,2,3,1",I052,,,,,,C325086,,,null,6,241,
,3,html-button-response,114,283210,0.0-7.0-0.14,dynamic,"6,2,3,1",I052,,,,,,C325086,,,,,,
sound/8star.wav,,audio-keyboard-response,115,284714,0.0-7.0-1.14,dynamic,"6,2,3,1",I052,,,,,,C325086,,,null,8,249,
,3,html-button-response,116,285955,0.0-7.0-0.15,dynamic,"6,2,3,1",I052,,,,,,C325086,,,,,,
sound/8star.wav,,audio-keyboard-response,117,287460,0.0-7.0-1.15,dynamic,"6,2,3,1",I052,,,,,,C325086,,,null,8,257,
,3,html-button-response,118,289209,0.0-7.0-0.16,dynamic,"6,2,3,1",I052,,,,,,C325086,,,,,,
sound/8star.wav,,audio-keyboard-response,119,290712,0.0-7.0-1.16,dynamic,"6,2,3,1",I052,,,,,,C325086,,,null,8,265,
,0,html-button-response,120,291876,0.0-7.0-0.17,dynamic,"6,2,3,1",I052,,,,,,C325086,,,,,,
sound/6star.wav,,audio-keyboard-response,121,293380,0.0-7.0-1.17,dynamic,"6,2,3,1",I052,,,,,,C325086,,,null,6,271,
,0,html-button-response,122,295045,0.0-7.0-0.18,dynamic,"6,2,3,1",I052,,,,,,C325086,,,,,,
sound/6star.wav,,audio-keyboard-response,123,296549,0.0-7.0-1.18,dynamic,"6,2,3,1",I052,,,,,,C325086,,,null,6,277,
,3,html-button-response,124,297767,0.0-7.0-0.19,dynamic,"6,2,3,1",I052,,,,,,C325086,,,,,,
sound/8star.wav,,audio-keyboard-response,125,299272,0.0-7.0-1.19,dynamic,"6,2,3,1",I052,,,,,,C325086,,,null,8,285,
,3,html-button-response,126,309075,0.0-7.0-0.20,dynamic,"6,2,3,1",I052,,,,,,C325086,,,,,,
sound/8star.wav,,audio-keyboard-response,127,310578,0.0-7.0-1.20,dynamic,"6,2,3,1",I052,,,,,,C325086,,,null,8,293,
,1,html-button-response,128,311496,0.0-7.0-0.21,dynamic,"6,2,3,1",I052,,,,,,C325086,,,,,,
sound/2star.wav,,audio-keyboard-response,129,313000,0.0-7.0-1.21,dynamic,"6,2,3,1",I052,,,,,,C325086,,,null,2,295,
,2,html-button-response,130,313820,0.0-7.0-0.22,dynamic,"6,2,3,1",I052,,,,,,C325086,,,,,,
sound/3star.wav,,audio-keyboard-response,131,315324,0.0-7.0-1.22,dynamic,"6,2,3,1",I052,,,,,,C325086,,,null,3,298,
,0,html-button-response,132,316045,0.0-7.0-0.23,dynamic,"6,2,3,1",I052,,,,,,C325086,,,,,,
sound/6star.wav,,audio-keyboard-response,133,317551,0.0-7.0-1.23,dynamic,"6,2,3,1",I052,,,,,,C325086,,,null,6,304,
,3,html-button-response,134,319870,0.0-7.0-0.24,dynamic,"6,2,3,1",I052,,,,,,C325086,,,,,,
sound/8star.wav,,audio-keyboard-response,135,321374,0.0-7.0-1.24,dynamic,"6,2,3,1",I052,,,,,,C325086,,,null,8,312,
,3,html-button-response,136,322677,0.0-7.0-0.25,dynamic,"6,2,3,1",I052,,,,,,C325086,,,,,,
sound/8star.wav,,audio-keyboard-response,137,324181,0.0-7.0-1.25,dynamic,"6,2,3,1",I052,,,,,,C325086,,,null,8,320,
,3,html-button-response,138,325583,0.0-7.0-0.26,dynamic,"6,2,3,1",I052,,,,,,C325086,,,,,,
sound/8star.wav,,audio-keyboard-response,139,327088,0.0-7.0-1.26,dynamic,"6,2,3,1",I052,,,,,,C325086,,,null,8,328,
,0,html-button-response,140,328270,0.0-7.0-0.27,dynamic,"6,2,3,1",I052,,,,,,C325086,,,,,,
sound/6star.wav,,audio-keyboard-response,141,329773,0.0-7.0-1.27,dynamic,"6,2,3,1",I052,,,,,,C325086,,,null,6,334,
,0,html-button-response,142,331330,0.0-7.0-0.28,dynamic,"6,2,3,1",I052,,,,,,C325086,,,,,,
sound/6star.wav,,audio-keyboard-response,143,332834,0.0-7.0-1.28,dynamic,"6,2,3,1",I052,,,,,,C325086,,,null,6,340,
,3,html-button-response,144,334052,0.0-7.0-0.29,dynamic,"6,2,3,1",I052,,,,,,C325086,,,,,,
sound/8star.wav,,audio-keyboard-response,145,335554,0.0-7.0-1.29,dynamic,"6,2,3,1",I052,,,,,,C325086,,,null,8,348,
,3,html-button-response,146,336893,0.0-7.0-0.30,dynamic,"6,2,3,1",I052,,,,,,C325086,,,,,,
sound/8star.wav,,audio-keyboard-response,147,338397,0.0-7.0-1.30,dynamic,"6,2,3,1",I052,,,,,,C325086,,,null,8,356,
,3,html-button-response,148,339561,0.0-7.0-0.31,dynamic,"6,2,3,1",I052,,,,,,C325086,,,,,,
sound/8star.wav,,audio-keyboard-response,149,341065,0.0-7.0-1.31,dynamic,"6,2,3,1",I052,,,,,,C325086,,,null,8,364,
,0,html-button-response,150,342440,0.0-7.0-0.32,dynamic,"6,2,3,1",I052,,,,,,C325086,,,,,,
sound/6star.wav,,audio-keyboard-response,151,343945,0.0-7.0-1.32,dynamic,"6,2,3,1",I052,,,,,,C325086,,,null,6,370,
,3,html-button-response,152,345656,0.0-7.0-0.33,dynamic,"6,2,3,1",I052,,,,,,C325086,,,,,,
sound/8star.wav,,audio-keyboard-response,153,347159,0.0-7.0-1.33,dynamic,"6,2,3,1",I052,,,,,,C325086,,,null,8,378,
,0,html-button-response,154,353020,0.0-7.0-0.34,dynamic,"6,2,3,1",I052,,,,,,C325086,,,,,,
sound/6star.wav,,audio-keyboard-response,155,354534,0.0-7.0-1.34,dynamic,"6,2,3,1",I052,,,,,,C325086,,,null,6,384,
,2,html-button-response,156,355756,0.0-7.0-0.35,dynamic,"6,2,3,1",I052,,,,,,C325086,,,,,,
sound/3star.wav,,audio-keyboard-response,157,357261,0.0-7.0-1.35,dynamic,"6,2,3,1",I052,,,,,,C325086,,,null,3,387,
,1,html-button-response,158,358160,0.0-7.0-0.36,dynamic,"6,2,3,1",I052,,,,,,C325086,,,,,,
sound/2star.wav,,audio-keyboard-response,159,359664,0.0-7.0-1.36,dynamic,"6,2,3,1",I052,,,,,,C325086,,,null,2,389,
,3,html-button-response,160,360388,0.0-7.0-0.37,dynamic,"6,2,3,1",I052,,,,,,C325086,,,,,,
sound/8star.wav,,audio-keyboard-response,161,361893,0.0-7.0-1.37,dynamic,"6,2,3,1",I052,,,,,,C325086,,,null,8,397,
,3,html-button-response,162,362968,0.0-7.0-0.38,dynamic,"6,2,3,1",I052,,,,,,C325086,,,,,,
sound/8star.wav,,audio-keyboard-response,163,364473,0.0-7.0-1.38,dynamic,"6,2,3,1",I052,,,,,,C325086,,,null,8,405,
,3,html-button-response,164,365710,0.0-7.0-0.39,dynamic,"6,2,3,1",I052,,,,,,C325086,,,,,,
sound/8star.wav,,audio-keyboard-response,165,367215,0.0-7.0-1.39,dynamic,"6,2,3,1",I052,,,,,,C325086,,,null,8,413,
sound/celebration.wav,0,audio-button-response,166,377732,0.0-8.0,dynamic,"6,2,3,1",I052,,,,,,C325086,,,,,,
"Which, if any, of these monsters ever gave you <b>1 star</b>?</p>",3,html-button-response,167,386611,0.0-9.0-0.0,dynamic,"6,2,3,1",I052,,,,,,C325086,,,,,,correct
"Which, if any, of these monsters ever gave you <b>2 stars</b>?</p>",1,html-button-response,168,394357,0.0-10.0-0.0,dynamic,"6,2,3,1",I052,,,,,,C325086,,,,,,correct
"Which, if any, of these monsters ever gave you <b>3 stars</b>?</p>",2,html-button-response,169,397511,0.0-11.0-0.0,dynamic,"6,2,3,1",I052,,,,,,C325086,,,,,,correct
"Which, if any, of these monsters ever gave you <b>6 stars</b>?</p>",0,html-button-response,170,401361,0.0-12.0-0.0,dynamic,"6,2,3,1",I052,,,,,,C325086,,,,,,correct
"Which, if any, of these monsters ever gave you <b>8 stars</b>?</p>",3,html-button-response,171,404796,0.0-13.0-0.0,dynamic,"6,2,3,1",I052,,,,,,C325086,,,,,,correct
Which monster did you like the most?</p>,0,html-button-response,172,416109,0.0-14.0-0.0,dynamic,"6,2,3,1",I052,,,,,,C325086,,,,,,
,,survey-text,173,441942,0.0-15.0,dynamic,"6,2,3,1",I052,,,,,,C325086,,"{""Q0"":""I like the horns on his cheeks""}",,,,
stimulus,button_pressed,trial_type,trial_index,time_elapsed,internal_node_id,condition,pointvals_firsthalf,subjID,gender,age,dob,dot,language,turkID,animation_sequence,responses,key_press,earnedThis,earnedCumulative,posttest
,0,html-button-response,0,17992,0.0-0.0,dynamic,"1,2,6,3",I036,,,,,,C110451,,,,,,
,,animation,1,30004,0.0-1.0,dynamic,"1,2,6,3",I036,,,,,,C110451,"[{""stimulus"":""img/screen1a.png"",""time"":3007},{""stimulus"":""img/screen1b.png"",""time"":6002},{""stimulus"":""img/screen1c.png"",""time"":9006}]",[],,,,
<img src='img/screen1d.png'></img>,0,html-button-response,2,32425,0.0-2.0,dynamic,"1,2,6,3",I036,,,,,,C110451,,,,,,
,,animation,3,53231,0.0-3.0,dynamic,"1,2,6,3",I036,,,,,,C110451,"[{""stimulus"":""img/screen2.jpg"",""time"":802},{""stimulus"":""img/screen2.jpg"",""time"":1604},{""stimulus"":""img/screen2.jpg"",""time"":2402},{""stimulus"":""img/screen2.jpg"",""time"":3204},{""stimulus"":""img/screen2.jpg"",""time"":4007},{""stimulus"":""img/screen3a.jpg"",""time"":4805},{""stimulus"":""img/screen3b.jpg"",""time"":5602},{""stimulus"":""img/screen3c.jpg"",""time"":6407},{""stimulus"":""img/screen3d.jpg"",""time"":7206},{""stimulus"":""img/screen4a.jpg"",""time"":8006},{""stimulus"":""img/screen4a.jpg"",""time"":8803},{""stimulus"":""img/screen4b.jpg"",""time"":9606},{""stimulus"":""img/screen4c.jpg"",""time"":10407},{""stimulus"":""img/screen4d.jpg"",""time"":11203},{""stimulus"":""img/screen4d.jpg"",""time"":12003},{""stimulus"":""img/screen5a.jpg"",""time"":12802},{""stimulus"":""img/screen5b1.jpg"",""time"":13602},{""stimulus"":""img/screen5b2.jpg"",""time"":14408},{""stimulus"":""img/screen5b3.jpg"",""time"":15208},{""stimulus"":""img/screen5b4.jpg"",""time"":16008},{""stimulus"":""img/screen5b5.jpg"",""time"":16802},{""stimulus"":""img/screen5b6.jpg"",""time"":17606},{""stimulus"":""img/screen5c.jpg"",""time"":18406},{""stimulus"":""img/screen5d.jpg"",""time"":19207},{""stimulus"":""img/screen5d.jpg"",""time"":20007}]",[],,,,
<img src='img/screen5e.jpg'></img>,0,html-button-response,4,61645,0.0-4.0,dynamic,"1,2,6,3",I036,,,,,,C110451,,,,,,
<p align='center'></p>,0,html-button-response,5,82952,0.0-5.0,dynamic,"1,2,6,3",I036,,,,,,C110451,,,,,,
,2,html-button-response,6,85152,0.0-6.0-0.0,dynamic,"1,2,6,3",I036,,,,,,C110451,,,,,,
sound/6star.wav,,audio-keyboard-response,7,86662,0.0-6.0-1.0,dynamic,"1,2,6,3",I036,,,,,,C110451,,,null,6,6,
,3,html-button-response,8,89620,0.0-6.0-0.1,dynamic,"1,2,6,3",I036,,,,,,C110451,,,,,,
sound/3star.wav,,audio-keyboard-response,9,91125,0.0-6.0-1.1,dynamic,"1,2,6,3",I036,,,,,,C110451,,,null,3,9,
,0,html-button-response,10,93036,0.0-6.0-0.2,dynamic,"1,2,6,3",I036,,,,,,C110451,,,,,,
sound/1star.wav,,audio-keyboard-response,11,94540,0.0-6.0-1.2,dynamic,"1,2,6,3",I036,,,,,,C110451,,,null,1,10,
,1,html-button-response,12,96054,0.0-6.0-0.3,dynamic,"1,2,6,3",I036,,,,,,C110451,,,,,,
sound/2star.wav,,audio-keyboard-response,13,97560,0.0-6.0-1.3,dynamic,"1,2,6,3",I036,,,,,,C110451,,,null,2,12,
,2,html-button-response,14,101212,0.0-6.0-0.4,dynamic,"1,2,6,3",I036,,,,,,C110451,,,,,,
sound/6star.wav,,audio-keyboard-response,15,102717,0.0-6.0-1.4,dynamic,"1,2,6,3",I036,,,,,,C110451,,,null,6,18,
,3,html-button-response,16,104193,0.0-6.0-0.5,dynamic,"1,2,6,3",I036,,,,,,C110451,,,,,,
sound/3star.wav,,audio-keyboard-response,17,105700,0.0-6.0-1.5,dynamic,"1,2,6,3",I036,,,,,,C110451,,,null,3,21,
,0,html-button-response,18,107188,0.0-6.0-0.6,dynamic,"1,2,6,3",I036,,,,,,C110451,,,,,,
sound/1star.wav,,audio-keyboard-response,19,108692,0.0-6.0-1.6,dynamic,"1,2,6,3",I036,,,,,,C110451,,,null,1,22,
,1,html-button-response,20,109984,0.0-6.0-0.7,dynamic,"1,2,6,3",I036,,,,,,C110451,,,,,,
sound/2star.wav,,audio-keyboard-response,21,111491,0.0-6.0-1.7,dynamic,"1,2,6,3",I036,,,,,,C110451,,,null,2,24,
,2,html-button-response,22,112907,0.0-6.0-0.8,dynamic,"1,2,6,3",I036,,,,,,C110451,,,,,,
sound/6star.wav,,audio-keyboard-response,23,114412,0.0-6.0-1.8,dynamic,"1,2,6,3",I036,,,,,,C110451,,,null,6,30,
,3,html-button-response,24,115672,0.0-6.0-0.9,dynamic,"1,2,6,3",I036,,,,,,C110451,,,,,,
sound/3star.wav,,audio-keyboard-response,25,117180,0.0-6.0-1.9,dynamic,"1,2,6,3",I036,,,,,,C110451,,,null,3,33,
,0,html-button-response,26,118443,0.0-6.0-0.10,dynamic,"1,2,6,3",I036,,,,,,C110451,,,,,,
sound/1star.wav,,audio-keyboard-response,27,119951,0.0-6.0-1.10,dynamic,"1,2,6,3",I036,,,,,,C110451,,,null,1,34,
,1,html-button-response,28,121005,0.0-6.0-0.11,dynamic,"1,2,6,3",I036,,,,,,C110451,,,,,,
sound/2star.wav,,audio-keyboard-response,29,122512,0.0-6.0-1.11,dynamic,"1,2,6,3",I036,,,,,,C110451,,,null,2,36,
,2,html-button-response,30,123705,0.0-6.0-0.12,dynamic,"1,2,6,3",I036,,,,,,C110451,,,,,,
sound/6star.wav,,audio-keyboard-response,31,125210,0.0-6.0-1.12,dynamic,"1,2,6,3",I036,,,,,,C110451,,,null,6,42,
,3,html-button-response,32,126661,0.0-6.0-0.13,dynamic,"1,2,6,3",I036,,,,,,C110451,,,,,,
sound/3star.wav,,audio-keyboard-response,33,128166,0.0-6.0-1.13,dynamic,"1,2,6,3",I036,,,,,,C110451,,,null,3,45,
,0,html-button-response,34,129419,0.0-6.0-0.14,dynamic,"1,2,6,3",I036,,,,,,C110451,,,,,,
sound/1star.wav,,audio-keyboard-response,35,130926,0.0-6.0-1.14,dynamic,"1,2,6,3",I036,,,,,,C110451,,,null,1,46,
,1,html-button-response,36,132146,0.0-6.0-0.15,dynamic,"1,2,6,3",I036,,,,,,C110451,,,,,,
sound/2star.wav,,audio-keyboard-response,37,133655,0.0-6.0-1.15,dynamic,"1,2,6,3",I036,,,,,,C110451,,,null,2,48,
,2,html-button-response,38,134812,0.0-6.0-0.16,dynamic,"1,2,6,3",I036,,,,,,C110451,,,,,,
sound/6star.wav,,audio-keyboard-response,39,136321,0.0-6.0-1.16,dynamic,"1,2,6,3",I036,,,,,,C110451,,,null,6,54,
,3,html-button-response,40,137694,0.0-6.0-0.17,dynamic,"1,2,6,3",I036,,,,,,C110451,,,,,,
sound/3star.wav,,audio-keyboard-response,41,139197,0.0-6.0-1.17,dynamic,"1,2,6,3",I036,,,,,,C110451,,,null,3,57,
,0,html-button-response,42,140415,0.0-6.0-0.18,dynamic,"1,2,6,3",I036,,,,,,C110451,,,,,,
sound/1star.wav,,audio-keyboard-response,43,141917,0.0-6.0-1.18,dynamic,"1,2,6,3",I036,,,,,,C110451,,,null,1,58,
,1,html-button-response,44,143190,0.0-6.0-0.19,dynamic,"1,2,6,3",I036,,,,,,C110451,,,,,,
sound/2star.wav,,audio-keyboard-response,45,144697,0.0-6.0-1.19,dynamic,"1,2,6,3",I036,,,,,,C110451,,,null,2,60,
,2,html-button-response,46,145914,0.0-6.0-0.20,dynamic,"1,2,6,3",I036,,,,,,C110451,,,,,,
sound/6star.wav,,audio-keyboard-response,47,147419,0.0-6.0-1.20,dynamic,"1,2,6,3",I036,,,,,,C110451,,,null,6,66,
,3,html-button-response,48,149001,0.0-6.0-0.21,dynamic,"1,2,6,3",I036,,,,,,C110451,,,,,,
sound/3star.wav,,audio-keyboard-response,49,150507,0.0-6.0-1.21,dynamic,"1,2,6,3",I036,,,,,,C110451,,,null,3,69,
,0,html-button-response,50,151493,0.0-6.0-0.22,dynamic,"1,2,6,3",I036,,,,,,C110451,,,,,,
sound/1star.wav,,audio-keyboard-response,51,153000,0.0-6.0-1.22,dynamic,"1,2,6,3",I036,,,,,,C110451,,,null,1,70,
,1,html-button-response,52,154095,0.0-6.0-0.23,dynamic,"1,2,6,3",I036,,,,,,C110451,,,,,,
sound/2star.wav,,audio-keyboard-response,53,155599,0.0-6.0-1.23,dynamic,"1,2,6,3",I036,,,,,,C110451,,,null,2,72,
,2,html-button-response,54,156629,0.0-6.0-0.24,dynamic,"1,2,6,3",I036,,,,,,C110451,,,,,,
sound/6star.wav,,audio-keyboard-response,55,158135,0.0-6.0-1.24,dynamic,"1,2,6,3",I036,,,,,,C110451,,,null,6,78,
,3,html-button-response,56,159347,0.0-6.0-0.25,dynamic,"1,2,6,3",I036,,,,,,C110451,,,,,,
sound/3star.wav,,audio-keyboard-response,57,160856,0.0-6.0-1.25,dynamic,"1,2,6,3",I036,,,,,,C110451,,,null,3,81,
,0,html-button-response,58,161938,0.0-6.0-0.26,dynamic,"1,2,6,3",I036,,,,,,C110451,,,,,,
sound/1star.wav,,audio-keyboard-response,59,163443,0.0-6.0-1.26,dynamic,"1,2,6,3",I036,,,,,,C110451,,,null,1,82,
,1,html-button-response,60,164461,0.0-6.0-0.27,dynamic,"1,2,6,3",I036,,,,,,C110451,,,,,,
sound/2star.wav,,audio-keyboard-response,61,165967,0.0-6.0-1.27,dynamic,"1,2,6,3",I036,,,,,,C110451,,,null,2,84,
,2,html-button-response,62,167113,0.0-6.0-0.28,dynamic,"1,2,6,3",I036,,,,,,C110451,,,,,,
sound/6star.wav,,audio-keyboard-response,63,168619,0.0-6.0-1.28,dynamic,"1,2,6,3",I036,,,,,,C110451,,,null,6,90,
,3,html-button-response,64,169984,0.0-6.0-0.29,dynamic,"1,2,6,3",I036,,,,,,C110451,,,,,,
sound/3star.wav,,audio-keyboard-response,65,171500,0.0-6.0-1.29,dynamic,"1,2,6,3",I036,,,,,,C110451,,,null,3,93,
,0,html-button-response,66,172813,0.0-6.0-0.30,dynamic,"1,2,6,3",I036,,,,,,C110451,,,,,,
sound/1star.wav,,audio-keyboard-response,67,174317,0.0-6.0-1.30,dynamic,"1,2,6,3",I036,,,,,,C110451,,,null,1,94,
,0,html-button-response,68,181858,0.0-6.0-0.31,dynamic,"1,2,6,3",I036,,,,,,C110451,,,,,,
sound/1star.wav,,audio-keyboard-response,69,183365,0.0-6.0-1.31,dynamic,"1,2,6,3",I036,,,,,,C110451,,,null,1,95,
,2,html-button-response,70,184369,0.0-6.0-0.32,dynamic,"1,2,6,3",I036,,,,,,C110451,,,,,,
sound/6star.wav,,audio-keyboard-response,71,185880,0.0-6.0-1.32,dynamic,"1,2,6,3",I036,,,,,,C110451,,,null,6,101,
,3,html-button-response,72,186886,0.0-6.0-0.33,dynamic,"1,2,6,3",I036,,,,,,C110451,,,,,,
sound/3star.wav,,audio-keyboard-response,73,188390,0.0-6.0-1.33,dynamic,"1,2,6,3",I036,,,,,,C110451,,,null,3,104,
,1,html-button-response,74,189591,0.0-6.0-0.34,dynamic,"1,2,6,3",I036,,,,,,C110451,,,,,,
sound/2star.wav,,audio-keyboard-response,75,191095,0.0-6.0-1.34,dynamic,"1,2,6,3",I036,,,,,,C110451,,,null,2,106,
,2,html-button-response,76,192059,0.0-6.0-0.35,dynamic,"1,2,6,3",I036,,,,,,C110451,,,,,,
sound/6star.wav,,audio-keyboard-response,77,193563,0.0-6.0-1.35,dynamic,"1,2,6,3",I036,,,,,,C110451,,,null,6,112,
,3,html-button-response,78,194684,0.0-6.0-0.36,dynamic,"1,2,6,3",I036,,,,,,C110451,,,,,,
sound/3star.wav,,audio-keyboard-response,79,196187,0.0-6.0-1.36,dynamic,"1,2,6,3",I036,,,,,,C110451,,,null,3,115,
,0,html-button-response,80,197302,0.0-6.0-0.37,dynamic,"1,2,6,3",I036,,,,,,C110451,,,,,,
sound/1star.wav,,audio-keyboard-response,81,198807,0.0-6.0-1.37,dynamic,"1,2,6,3",I036,,,,,,C110451,,,null,1,116,
,1,html-button-response,82,199983,0.0-6.0-0.38,dynamic,"1,2,6,3",I036,,,,,,C110451,,,,,,
sound/2star.wav,,audio-keyboard-response,83,201487,0.0-6.0-1.38,dynamic,"1,2,6,3",I036,,,,,,C110451,,,null,2,118,
,2,html-button-response,84,203210,0.0-6.0-0.39,dynamic,"1,2,6,3",I036,,,,,,C110451,,,,,,
sound/6star.wav,,audio-keyboard-response,85,204715,0.0-6.0-1.39,dynamic,"1,2,6,3",I036,,,,,,C110451,,,null,6,124,
,3,html-button-response,86,206087,0.0-7.0-0.0,dynamic,"1,2,6,3",I036,,,,,,C110451,,,,,,
sound/3star.wav,,audio-keyboard-response,87,207594,0.0-7.0-1.0,dynamic,"1,2,6,3",I036,,,,,,C110451,,,null,3,127,
,0,html-button-response,88,208859,0.0-7.0-0.1,dynamic,"1,2,6,3",I036,,,,,,C110451,,,,,,
sound/8star.wav,,audio-keyboard-response,89,210375,0.0-7.0-1.1,dynamic,"1,2,6,3",I036,,,,,,C110451,,,null,8,135,
,1,html-button-response,90,211984,0.0-7.0-0.2,dynamic,"1,2,6,3",I036,,,,,,C110451,,,,,,
sound/2star.wav,,audio-keyboard-response,91,213488,0.0-7.0-1.2,dynamic,"1,2,6,3",I036,,,,,,C110451,,,null,2,137,
,2,html-button-response,92,214833,0.0-7.0-0.3,dynamic,"1,2,6,3",I036,,,,,,C110451,,,,,,
sound/6star.wav,,audio-keyboard-response,93,216338,0.0-7.0-1.3,dynamic,"1,2,6,3",I036,,,,,,C110451,,,null,6,143,
,3,html-button-response,94,217698,0.0-7.0-0.4,dynamic,"1,2,6,3",I036,,,,,,C110451,,,,,,
sound/3star.wav,,audio-keyboard-response,95,219202,0.0-7.0-1.4,dynamic,"1,2,6,3",I036,,,,,,C110451,,,null,3,146,
,0,html-button-response,96,220472,0.0-7.0-0.5,dynamic,"1,2,6,3",I036,,,,,,C110451,,,,,,
sound/8star.wav,,audio-keyboard-response,97,221978,0.0-7.0-1.5,dynamic,"1,2,6,3",I036,,,,,,C110451,,,null,8,154,
,1,html-button-response,98,223305,0.0-7.0-0.6,dynamic,"1,2,6,3",I036,,,,,,C110451,,,,,,
sound/2star.wav,,audio-keyboard-response,99,224809,0.0-7.0-1.6,dynamic,"1,2,6,3",I036,,,,,,C110451,,,null,2,156,
,2,html-button-response,100,226117,0.0-7.0-0.7,dynamic,"1,2,6,3",I036,,,,,,C110451,,,,,,
sound/6star.wav,,audio-keyboard-response,101,227621,0.0-7.0-1.7,dynamic,"1,2,6,3",I036,,,,,,C110451,,,null,6,162,
,3,html-button-response,102,229022,0.0-7.0-0.8,dynamic,"1,2,6,3",I036,,,,,,C110451,,,,,,
sound/3star.wav,,audio-keyboard-response,103,230527,0.0-7.0-1.8,dynamic,"1,2,6,3",I036,,,,,,C110451,,,null,3,165,
,0,html-button-response,104,231977,0.0-7.0-0.9,dynamic,"1,2,6,3",I036,,,,,,C110451,,,,,,
sound/8star.wav,,audio-keyboard-response,105,233480,0.0-7.0-1.9,dynamic,"1,2,6,3",I036,,,,,,C110451,,,null,8,173,
,1,html-button-response,106,235001,0.0-7.0-0.10,dynamic,"1,2,6,3",I036,,,,,,C110451,,,,,,
sound/2star.wav,,audio-keyboard-response,107,236507,0.0-7.0-1.10,dynamic,"1,2,6,3",I036,,,,,,C110451,,,null,2,175,
,2,html-button-response,108,237775,0.0-7.0-0.11,dynamic,"1,2,6,3",I036,,,,,,C110451,,,,,,
sound/6star.wav,,audio-keyboard-response,109,239279,0.0-7.0-1.11,dynamic,"1,2,6,3",I036,,,,,,C110451,,,null,6,181,
,3,html-button-response,110,240770,0.0-7.0-0.12,dynamic,"1,2,6,3",I036,,,,,,C110451,,,,,,
sound/3star.wav,,audio-keyboard-response,111,242273,0.0-7.0-1.12,dynamic,"1,2,6,3",I036,,,,,,C110451,,,null,3,184,
,0,html-button-response,112,243627,0.0-7.0-0.13,dynamic,"1,2,6,3",I036,,,,,,C110451,,,,,,
sound/8star.wav,,audio-keyboard-response,113,245131,0.0-7.0-1.13,dynamic,"1,2,6,3",I036,,,,,,C110451,,,null,8,192,
,1,html-button-response,114,246686,0.0-7.0-0.14,dynamic,"1,2,6,3",I036,,,,,,C110451,,,,,,
sound/2star.wav,,audio-keyboard-response,115,248192,0.0-7.0-1.14,dynamic,"1,2,6,3",I036,,,,,,C110451,,,null,2,194,
,2,html-button-response,116,253237,0.0-7.0-0.15,dynamic,"1,2,6,3",I036,,,,,,C110451,,,,,,
sound/6star.wav,,audio-keyboard-response,117,254741,0.0-7.0-1.15,dynamic,"1,2,6,3",I036,,,,,,C110451,,,null,6,200,
,3,html-button-response,118,256086,0.0-7.0-0.16,dynamic,"1,2,6,3",I036,,,,,,C110451,,,,,,
sound/3star.wav,,audio-keyboard-response,119,257589,0.0-7.0-1.16,dynamic,"1,2,6,3",I036,,,,,,C110451,,,null,3,203,
,0,html-button-response,120,258933,0.0-7.0-0.17,dynamic,"1,2,6,3",I036,,,,,,C110451,,,,,,
sound/8star.wav,,audio-keyboard-response,121,260436,0.0-7.0-1.17,dynamic,"1,2,6,3",I036,,,,,,C110451,,,null,8,211,
,1,html-button-response,122,262107,0.0-7.0-0.18,dynamic,"1,2,6,3",I036,,,,,,C110451,,,,,,
sound/2star.wav,,audio-keyboard-response,123,263612,0.0-7.0-1.18,dynamic,"1,2,6,3",I036,,,,,,C110451,,,null,2,213,
,2,html-button-response,124,264922,0.0-7.0-0.19,dynamic,"1,2,6,3",I036,,,,,,C110451,,,,,,
sound/6star.wav,,audio-keyboard-response,125,266428,0.0-7.0-1.19,dynamic,"1,2,6,3",I036,,,,,,C110451,,,null,6,219,
,3,html-button-response,126,267811,0.0-7.0-0.20,dynamic,"1,2,6,3",I036,,,,,,C110451,,,,,,
sound/3star.wav,,audio-keyboard-response,127,269317,0.0-7.0-1.20,dynamic,"1,2,6,3",I036,,,,,,C110451,,,null,3,222,
,0,html-button-response,128,270807,0.0-7.0-0.21,dynamic,"1,2,6,3",I036,,,,,,C110451,,,,,,
sound/8star.wav,,audio-keyboard-response,129,272311,0.0-7.0-1.21,dynamic,"1,2,6,3",I036,,,,,,C110451,,,null,8,230,
,1,html-button-response,130,273861,0.0-7.0-0.22,dynamic,"1,2,6,3",I036,,,,,,C110451,,,,,,
sound/2star.wav,,audio-keyboard-response,131,275365,0.0-7.0-1.22,dynamic,"1,2,6,3",I036,,,,,,C110451,,,null,2,232,
,2,html-button-response,132,276366,0.0-7.0-0.23,dynamic,"1,2,6,3",I036,,,,,,C110451,,,,,,
sound/6star.wav,,audio-keyboard-response,133,277870,0.0-7.0-1.23,dynamic,"1,2,6,3",I036,,,,,,C110451,,,null,6,238,
,3,html-button-response,134,279037,0.0-7.0-0.24,dynamic,"1,2,6,3",I036,,,,,,C110451,,,,,,
sound/3star.wav,,audio-keyboard-response,135,280539,0.0-7.0-1.24,dynamic,"1,2,6,3",I036,,,,,,C110451,,,null,3,241,
,0,html-button-response,136,281973,0.0-7.0-0.25,dynamic,"1,2,6,3",I036,,,,,,C110451,,,,,,
sound/8star.wav,,audio-keyboard-response,137,283476,0.0-7.0-1.25,dynamic,"1,2,6,3",I036,,,,,,C110451,,,null,8,249,
,1,html-button-response,138,285114,0.0-7.0-0.26,dynamic,"1,2,6,3",I036,,,,,,C110451,,,,,,
sound/2star.wav,,audio-keyboard-response,139,286618,0.0-7.0-1.26,dynamic,"1,2,6,3",I036,,,,,,C110451,,,null,2,251,
,2,html-button-response,140,287659,0.0-7.0-0.27,dynamic,"1,2,6,3",I036,,,,,,C110451,,,,,,
sound/6star.wav,,audio-keyboard-response,141,289169,0.0-7.0-1.27,dynamic,"1,2,6,3",I036,,,,,,C110451,,,null,6,257,
,3,html-button-response,142,290634,0.0-7.0-0.28,dynamic,"1,2,6,3",I036,,,,,,C110451,,,,,,
sound/3star.wav,,audio-keyboard-response,143,292138,0.0-7.0-1.28,dynamic,"1,2,6,3",I036,,,,,,C110451,,,null,3,260,
,0,html-button-response,144,293284,0.0-7.0-0.29,dynamic,"1,2,6,3",I036,,,,,,C110451,,,,,,
sound/8star.wav,,audio-keyboard-response,145,294792,0.0-7.0-1.29,dynamic,"1,2,6,3",I036,,,,,,C110451,,,null,8,268,
,1,html-button-response,146,296289,0.0-7.0-0.30,dynamic,"1,2,6,3",I036,,,,,,C110451,,,,,,
sound/2star.wav,,audio-keyboard-response,147,297793,0.0-7.0-1.30,dynamic,"1,2,6,3",I036,,,,,,C110451,,,null,2,270,
,2,html-button-response,148,299355,0.0-7.0-0.31,dynamic,"1,2,6,3",I036,,,,,,C110451,,,,,,
sound/6star.wav,,audio-keyboard-response,149,300859,0.0-7.0-1.31,dynamic,"1,2,6,3",I036,,,,,,C110451,,,null,6,276,
,3,html-button-response,150,302209,0.0-7.0-0.32,dynamic,"1,2,6,3",I036,,,,,,C110451,,,,,,
sound/3star.wav,,audio-keyboard-response,151,303712,0.0-7.0-1.32,dynamic,"1,2,6,3",I036,,,,,,C110451,,,null,3,279,
,0,html-button-response,152,304822,0.0-7.0-0.33,dynamic,"1,2,6,3",I036,,,,,,C110451,,,,,,
sound/8star.wav,,audio-keyboard-response,153,306327,0.0-7.0-1.33,dynamic,"1,2,6,3",I036,,,,,,C110451,,,null,8,287,
,1,html-button-response,154,308829,0.0-7.0-0.34,dynamic,"1,2,6,3",I036,,,,,,C110451,,,,,,
sound/2star.wav,,audio-keyboard-response,155,310334,0.0-7.0-1.34,dynamic,"1,2,6,3",I036,,,,,,C110451,,,null,2,289,
,2,html-button-response,156,314528,0.0-7.0-0.35,dynamic,"1,2,6,3",I036,,,,,,C110451,,,,,,
sound/6star.wav,,audio-keyboard-response,157,316034,0.0-7.0-1.35,dynamic,"1,2,6,3",I036,,,,,,C110451,,,null,6,295,
,3,html-button-response,158,317184,0.0-7.0-0.36,dynamic,"1,2,6,3",I036,,,,,,C110451,,,,,,
sound/3star.wav,,audio-keyboard-response,159,318689,0.0-7.0-1.36,dynamic,"1,2,6,3",I036,,,,,,C110451,,,null,3,298,
,0,html-button-response,160,319786,0.0-7.0-0.37,dynamic,"1,2,6,3",I036,,,,,,C110451,,,,,,
sound/8star.wav,,audio-keyboard-response,161,321290,0.0-7.0-1.37,dynamic,"1,2,6,3",I036,,,,,,C110451,,,null,8,306,
,1,html-button-response,162,322803,0.0-7.0-0.38,dynamic,"1,2,6,3",I036,,,,,,C110451,,,,,,
sound/2star.wav,,audio-keyboard-response,163,324307,0.0-7.0-1.38,dynamic,"1,2,6,3",I036,,,,,,C110451,,,null,2,308,
,2,html-button-response,164,325238,0.0-7.0-0.39,dynamic,"1,2,6,3",I036,,,,,,C110451,,,,,,
sound/6star.wav,,audio-keyboard-response,165,326744,0.0-7.0-1.39,dynamic,"1,2,6,3",I036,,,,,,C110451,,,null,6,314,
sound/celebration.wav,0,audio-button-response,166,338901,0.0-8.0,dynamic,"1,2,6,3",I036,,,,,,C110451,,,,,,
"Which, if any, of these monsters ever gave you <b>1 star</b>?</p>",3,html-button-response,167,349501,0.0-9.0-0.0,dynamic,"1,2,6,3",I036,,,,,,C110451,,,,,,incorrect
"Which, if any, of these monsters ever gave you <b>2 stars</b>?</p>",2,html-button-response,168,356643,0.0-10.0-0.0,dynamic,"1,2,6,3",I036,,,,,,C110451,,,,,,incorrect
"Which, if any, of these monsters ever gave you <b>3 stars</b>?</p>",0,html-button-response,169,363192,0.0-11.0-0.0,dynamic,"1,2,6,3",I036,,,,,,C110451,,,,,,incorrect
"Which, if any, of these monsters ever gave you <b>6 stars</b>?</p>",2,html-button-response,170,370352,0.0-12.0-0.0,dynamic,"1,2,6,3",I036,,,,,,C110451,,,,,,correct
"Which, if any, of these monsters ever gave you <b>8 stars</b>?</p>",3,html-button-response,171,377464,0.0-13.0-0.0,dynamic,"1,2,6,3",I036,,,,,,C110451,,,,,,incorrect
Which monster did you like the most?</p>,2,html-button-response,172,382252,0.0-14.0-0.0,dynamic,"1,2,6,3",I036,,,,,,C110451,,,,,,
,,survey-text,173,392126,0.0-15.0,dynamic,"1,2,6,3",I036,,,,,,C110451,,"{""Q0"":""Favorite color""}",,,,
stimulus,button_pressed,trial_type,trial_index,time_elapsed,internal_node_id,condition,pointvals_firsthalf,subjID,gender,age,dob,dot,language,turkID,animation_sequence,responses,key_press,earnedThis,earnedCumulative,posttest
,0,html-button-response,0,14065,0.0-0.0,dynamic,"2,1,6,3",I043,,,,,,C401116,,,,,,
,,animation,1,26072,0.0-1.0,dynamic,"2,1,6,3",I043,,,,,,C401116,"[{""stimulus"":""img/screen1a.png"",""time"":3005},{""stimulus"":""img/screen1b.png"",""time"":6016},{""stimulus"":""img/screen1c.png"",""time"":9008}]",[],,,,
<img src='img/screen1d.png'></img>,0,html-button-response,2,27886,0.0-2.0,dynamic,"2,1,6,3",I043,,,,,,C401116,,,,,,
,,animation,3,48693,0.0-3.0,dynamic,"2,1,6,3",I043,,,,,,C401116,"[{""stimulus"":""img/screen2.jpg"",""time"":801},{""stimulus"":""img/screen2.jpg"",""time"":1605},{""stimulus"":""img/screen2.jpg"",""time"":2401},{""stimulus"":""img/screen2.jpg"",""time"":3208},{""stimulus"":""img/screen2.jpg"",""time"":4005},{""stimulus"":""img/screen3a.jpg"",""time"":4810},{""stimulus"":""img/screen3b.jpg"",""time"":5602},{""stimulus"":""img/screen3c.jpg"",""time"":6405},{""stimulus"":""img/screen3d.jpg"",""time"":7205},{""stimulus"":""img/screen4a.jpg"",""time"":8005},{""stimulus"":""img/screen4a.jpg"",""time"":8807},{""stimulus"":""img/screen4b.jpg"",""time"":9602},{""stimulus"":""img/screen4c.jpg"",""time"":10405},{""stimulus"":""img/screen4d.jpg"",""time"":11205},{""stimulus"":""img/screen4d.jpg"",""time"":12006},{""stimulus"":""img/screen5a.jpg"",""time"":12805},{""stimulus"":""img/screen5b1.jpg"",""time"":13601},{""stimulus"":""img/screen5b2.jpg"",""time"":14406},{""stimulus"":""img/screen5b3.jpg"",""time"":15206},{""stimulus"":""img/screen5b4.jpg"",""time"":16006},{""stimulus"":""img/screen5b5.jpg"",""time"":16806},{""stimulus"":""img/screen5b6.jpg"",""time"":17604},{""stimulus"":""img/screen5c.jpg"",""time"":18405},{""stimulus"":""img/screen5d.jpg"",""time"":19206},{""stimulus"":""img/screen5d.jpg"",""time"":20006}]",[],,,,
<img src='img/screen5e.jpg'></img>,0,html-button-response,4,50947,0.0-4.0,dynamic,"2,1,6,3",I043,,,,,,C401116,,,,,,
<p align='center'></p>,0,html-button-response,5,69091,0.0-5.0,dynamic,"2,1,6,3",I043,,,,,,C401116,,,,,,
,2,html-button-response,6,73347,0.0-6.0-0.0,dynamic,"2,1,6,3",I043,,,,,,C401116,,,,,,
sound/6star.wav,,audio-keyboard-response,7,74852,0.0-6.0-1.0,dynamic,"2,1,6,3",I043,,,,,,C401116,,,null,6,6,
,3,html-button-response,8,78732,0.0-6.0-0.1,dynamic,"2,1,6,3",I043,,,,,,C401116,,,,,,
sound/3star.wav,,audio-keyboard-response,9,80237,0.0-6.0-1.1,dynamic,"2,1,6,3",I043,,,,,,C401116,,,null,3,9,
,2,html-button-response,10,82015,0.0-6.0-0.2,dynamic,"2,1,6,3",I043,,,,,,C401116,,,,,,
sound/6star.wav,,audio-keyboard-response,11,83517,0.0-6.0-1.2,dynamic,"2,1,6,3",I043,,,,,,C401116,,,null,6,15,
,0,html-button-response,12,85320,0.0-6.0-0.3,dynamic,"2,1,6,3",I043,,,,,,C401116,,,,,,
sound/2star.wav,,audio-keyboard-response,13,86824,0.0-6.0-1.3,dynamic,"2,1,6,3",I043,,,,,,C401116,,,null,2,17,
,1,html-button-response,14,88350,0.0-6.0-0.4,dynamic,"2,1,6,3",I043,,,,,,C401116,,,,,,
sound/1star.wav,,audio-keyboard-response,15,89855,0.0-6.0-1.4,dynamic,"2,1,6,3",I043,,,,,,C401116,,,null,1,18,
,3,html-button-response,16,91952,0.0-6.0-0.5,dynamic,"2,1,6,3",I043,,,,,,C401116,,,,,,
sound/3star.wav,,audio-keyboard-response,17,93457,0.0-6.0-1.5,dynamic,"2,1,6,3",I043,,,,,,C401116,,,null,3,21,
,2,html-button-response,18,95082,0.0-6.0-0.6,dynamic,"2,1,6,3",I043,,,,,,C401116,,,,,,
sound/6star.wav,,audio-keyboard-response,19,96585,0.0-6.0-1.6,dynamic,"2,1,6,3",I043,,,,,,C401116,,,null,6,27,
,0,html-button-response,20,98143,0.0-6.0-0.7,dynamic,"2,1,6,3",I043,,,,,,C401116,,,,,,
sound/2star.wav,,audio-keyboard-response,21,99647,0.0-6.0-1.7,dynamic,"2,1,6,3",I043,,,,,,C401116,,,null,2,29,
,3,html-button-response,22,100878,0.0-6.0-0.8,dynamic,"2,1,6,3",I043,,,,,,C401116,,,,,,
sound/3star.wav,,audio-keyboard-response,23,102383,0.0-6.0-1.8,dynamic,"2,1,6,3",I043,,,,,,C401116,,,null,3,32,
,1,html-button-response,24,103758,0.0-6.0-0.9,dynamic,"2,1,6,3",I043,,,,,,C401116,,,,,,
sound/1star.wav,,audio-keyboard-response,25,105262,0.0-6.0-1.9,dynamic,"2,1,6,3",I043,,,,,,C401116,,,null,1,33,
,2,html-button-response,26,106480,0.0-6.0-0.10,dynamic,"2,1,6,3",I043,,,,,,C401116,,,,,,
sound/6star.wav,,audio-keyboard-response,27,107984,0.0-6.0-1.10,dynamic,"2,1,6,3",I043,,,,,,C401116,,,null,6,39,
,3,html-button-response,28,109228,0.0-6.0-0.11,dynamic,"2,1,6,3",I043,,,,,,C401116,,,,,,
sound/3star.wav,,audio-keyboard-response,29,110732,0.0-6.0-1.11,dynamic,"2,1,6,3",I043,,,,,,C401116,,,null,3,42,
,1,html-button-response,30,111908,0.0-6.0-0.12,dynamic,"2,1,6,3",I043,,,,,,C401116,,,,,,
sound/1star.wav,,audio-keyboard-response,31,113412,0.0-6.0-1.12,dynamic,"2,1,6,3",I043,,,,,,C401116,,,null,1,43,
,0,html-button-response,32,114513,0.0-6.0-0.13,dynamic,"2,1,6,3",I043,,,,,,C401116,,,,,,
sound/2star.wav,,audio-keyboard-response,33,116019,0.0-6.0-1.13,dynamic,"2,1,6,3",I043,,,,,,C401116,,,null,2,45,
,2,html-button-response,34,117113,0.0-6.0-0.14,dynamic,"2,1,6,3",I043,,,,,,C401116,,,,,,
sound/6star.wav,,audio-keyboard-response,35,118616,0.0-6.0-1.14,dynamic,"2,1,6,3",I043,,,,,,C401116,,,null,6,51,
,2,html-button-response,36,119792,0.0-6.0-0.15,dynamic,"2,1,6,3",I043,,,,,,C401116,,,,,,
sound/6star.wav,,audio-keyboard-response,37,121296,0.0-6.0-1.15,dynamic,"2,1,6,3",I043,,,,,,C401116,,,null,6,57,
,2,html-button-response,38,122390,0.0-6.0-0.16,dynamic,"2,1,6,3",I043,,,,,,C401116,,,,,,
sound/6star.wav,,audio-keyboard-response,39,123892,0.0-6.0-1.16,dynamic,"2,1,6,3",I043,,,,,,C401116,,,null,6,63,
,2,html-button-response,40,125122,0.0-6.0-0.17,dynamic,"2,1,6,3",I043,,,,,,C401116,,,,,,
sound/6star.wav,,audio-keyboard-response,41,126624,0.0-6.0-1.17,dynamic,"2,1,6,3",I043,,,,,,C401116,,,null,6,69,
,2,html-button-response,42,128097,0.0-6.0-0.18,dynamic,"2,1,6,3",I043,,,,,,C401116,,,,,,
sound/6star.wav,,audio-keyboard-response,43,129601,0.0-6.0-1.18,dynamic,"2,1,6,3",I043,,,,,,C401116,,,null,6,75,
,2,html-button-response,44,130903,0.0-6.0-0.19,dynamic,"2,1,6,3",I043,,,,,,C401116,,,,,,
sound/6star.wav,,audio-keyboard-response,45,132405,0.0-6.0-1.19,dynamic,"2,1,6,3",I043,,,,,,C401116,,,null,6,81,
,2,html-button-response,46,133976,0.0-6.0-0.20,dynamic,"2,1,6,3",I043,,,,,,C401116,,,,,,
sound/6star.wav,,audio-keyboard-response,47,135479,0.0-6.0-1.20,dynamic,"2,1,6,3",I043,,,,,,C401116,,,null,6,87,
,2,html-button-response,48,136705,0.0-6.0-0.21,dynamic,"2,1,6,3",I043,,,,,,C401116,,,,,,
sound/6star.wav,,audio-keyboard-response,49,138209,0.0-6.0-1.21,dynamic,"2,1,6,3",I043,,,,,,C401116,,,null,6,93,
,2,html-button-response,50,139676,0.0-6.0-0.22,dynamic,"2,1,6,3",I043,,,,,,C401116,,,,,,
sound/6star.wav,,audio-keyboard-response,51,141187,0.0-6.0-1.22,dynamic,"2,1,6,3",I043,,,,,,C401116,,,null,6,99,
,2,html-button-response,52,142382,0.0-6.0-0.23,dynamic,"2,1,6,3",I043,,,,,,C401116,,,,,,
sound/6star.wav,,audio-keyboard-response,53,143886,0.0-6.0-1.23,dynamic,"2,1,6,3",I043,,,,,,C401116,,,null,6,105,
,2,html-button-response,54,145036,0.0-6.0-0.24,dynamic,"2,1,6,3",I043,,,,,,C401116,,,,,,
sound/6star.wav,,audio-keyboard-response,55,146541,0.0-6.0-1.24,dynamic,"2,1,6,3",I043,,,,,,C401116,,,null,6,111,
,2,html-button-response,56,147718,0.0-6.0-0.25,dynamic,"2,1,6,3",I043,,,,,,C401116,,,,,,
sound/6star.wav,,audio-keyboard-response,57,149221,0.0-6.0-1.25,dynamic,"2,1,6,3",I043,,,,,,C401116,,,null,6,117,
,2,html-button-response,58,150567,0.0-6.0-0.26,dynamic,"2,1,6,3",I043,,,,,,C401116,,,,,,
sound/6star.wav,,audio-keyboard-response,59,152070,0.0-6.0-1.26,dynamic,"2,1,6,3",I043,,,,,,C401116,,,null,6,123,
,2,html-button-response,60,153924,0.0-6.0-0.27,dynamic,"2,1,6,3",I043,,,,,,C401116,,,,,,
sound/6star.wav,,audio-keyboard-response,61,155427,0.0-6.0-1.27,dynamic,"2,1,6,3",I043,,,,,,C401116,,,null,6,129,
,2,html-button-response,62,157371,0.0-6.0-0.28,dynamic,"2,1,6,3",I043,,,,,,C401116,,,,,,
sound/6star.wav,,audio-keyboard-response,63,158873,0.0-6.0-1.28,dynamic,"2,1,6,3",I043,,,,,,C401116,,,null,6,135,
,2,html-button-response,64,160313,0.0-6.0-0.29,dynamic,"2,1,6,3",I043,,,,,,C401116,,,,,,
sound/6star.wav,,audio-keyboard-response,65,161818,0.0-6.0-1.29,dynamic,"2,1,6,3",I043,,,,,,C401116,,,null,6,141,
,2,html-button-response,66,163136,0.0-6.0-0.30,dynamic,"2,1,6,3",I043,,,,,,C401116,,,,,,
sound/6star.wav,,audio-keyboard-response,67,164638,0.0-6.0-1.30,dynamic,"2,1,6,3",I043,,,,,,C401116,,,null,6,147,
,2,html-button-response,68,165619,0.0-6.0-0.31,dynamic,"2,1,6,3",I043,,,,,,C401116,,,,,,
sound/6star.wav,,audio-keyboard-response,69,167123,0.0-6.0-1.31,dynamic,"2,1,6,3",I043,,,,,,C401116,,,null,6,153,
,2,html-button-response,70,168222,0.0-6.0-0.32,dynamic,"2,1,6,3",I043,,,,,,C401116,,,,,,
sound/6star.wav,,audio-keyboard-response,71,169726,0.0-6.0-1.32,dynamic,"2,1,6,3",I043,,,,,,C401116,,,null,6,159,
,2,html-button-response,72,171047,0.0-6.0-0.33,dynamic,"2,1,6,3",I043,,,,,,C401116,,,,,,
sound/6star.wav,,audio-keyboard-response,73,172550,0.0-6.0-1.33,dynamic,"2,1,6,3",I043,,,,,,C401116,,,null,6,165,
,2,html-button-response,74,173902,0.0-6.0-0.34,dynamic,"2,1,6,3",I043,,,,,,C401116,,,,,,
sound/6star.wav,,audio-keyboard-response,75,175405,0.0-6.0-1.34,dynamic,"2,1,6,3",I043,,,,,,C401116,,,null,6,171,
,2,html-button-response,76,176727,0.0-6.0-0.35,dynamic,"2,1,6,3",I043,,,,,,C401116,,,,,,
sound/6star.wav,,audio-keyboard-response,77,178230,0.0-6.0-1.35,dynamic,"2,1,6,3",I043,,,,,,C401116,,,null,6,177,
,2,html-button-response,78,179358,0.0-6.0-0.36,dynamic,"2,1,6,3",I043,,,,,,C401116,,,,,,
sound/6star.wav,,audio-keyboard-response,79,180862,0.0-6.0-1.36,dynamic,"2,1,6,3",I043,,,,,,C401116,,,null,6,183,
,2,html-button-response,80,182151,0.0-6.0-0.37,dynamic,"2,1,6,3",I043,,,,,,C401116,,,,,,
sound/6star.wav,,audio-keyboard-response,81,183655,0.0-6.0-1.37,dynamic,"2,1,6,3",I043,,,,,,C401116,,,null,6,189,
,2,html-button-response,82,185128,0.0-6.0-0.38,dynamic,"2,1,6,3",I043,,,,,,C401116,,,,,,
sound/6star.wav,,audio-keyboard-response,83,186631,0.0-6.0-1.38,dynamic,"2,1,6,3",I043,,,,,,C401116,,,null,6,195,
,2,html-button-response,84,187767,0.0-6.0-0.39,dynamic,"2,1,6,3",I043,,,,,,C401116,,,,,,
sound/6star.wav,,audio-keyboard-response,85,189270,0.0-6.0-1.39,dynamic,"2,1,6,3",I043,,,,,,C401116,,,null,6,201,
,2,html-button-response,86,190211,0.0-7.0-0.0,dynamic,"2,1,6,3",I043,,,,,,C401116,,,,,,
sound/6star.wav,,audio-keyboard-response,87,191714,0.0-7.0-1.0,dynamic,"2,1,6,3",I043,,,,,,C401116,,,null,6,207,
,2,html-button-response,88,192887,0.0-7.0-0.1,dynamic,"2,1,6,3",I043,,,,,,C401116,,,,,,
sound/6star.wav,,audio-keyboard-response,89,194390,0.0-7.0-1.1,dynamic,"2,1,6,3",I043,,,,,,C401116,,,null,6,213,
,2,html-button-response,90,195590,0.0-7.0-0.2,dynamic,"2,1,6,3",I043,,,,,,C401116,,,,,,
sound/6star.wav,,audio-keyboard-response,91,197093,0.0-7.0-1.2,dynamic,"2,1,6,3",I043,,,,,,C401116,,,null,6,219,
,2,html-button-response,92,198097,0.0-7.0-0.3,dynamic,"2,1,6,3",I043,,,,,,C401116,,,,,,
sound/6star.wav,,audio-keyboard-response,93,199600,0.0-7.0-1.3,dynamic,"2,1,6,3",I043,,,,,,C401116,,,null,6,225,
,2,html-button-response,94,201302,0.0-7.0-0.4,dynamic,"2,1,6,3",I043,,,,,,C401116,,,,,,
sound/6star.wav,,audio-keyboard-response,95,202804,0.0-7.0-1.4,dynamic,"2,1,6,3",I043,,,,,,C401116,,,null,6,231,
,2,html-button-response,96,204184,0.0-7.0-0.5,dynamic,"2,1,6,3",I043,,,,,,C401116,,,,,,
sound/6star.wav,,audio-keyboard-response,97,205687,0.0-7.0-1.5,dynamic,"2,1,6,3",I043,,,,,,C401116,,,null,6,237,
,2,html-button-response,98,207072,0.0-7.0-0.6,dynamic,"2,1,6,3",I043,,,,,,C401116,,,,,,
sound/6star.wav,,audio-keyboard-response,99,208574,0.0-7.0-1.6,dynamic,"2,1,6,3",I043,,,,,,C401116,,,null,6,243,
,2,html-button-response,100,209976,0.0-7.0-0.7,dynamic,"2,1,6,3",I043,,,,,,C401116,,,,,,
sound/6star.wav,,audio-keyboard-response,101,211482,0.0-7.0-1.7,dynamic,"2,1,6,3",I043,,,,,,C401116,,,null,6,249,
,2,html-button-response,102,212753,0.0-7.0-0.8,dynamic,"2,1,6,3",I043,,,,,,C401116,,,,,,
sound/6star.wav,,audio-keyboard-response,103,214257,0.0-7.0-1.8,dynamic,"2,1,6,3",I043,,,,,,C401116,,,null,6,255,
,2,html-button-response,104,215510,0.0-7.0-0.9,dynamic,"2,1,6,3",I043,,,,,,C401116,,,,,,
sound/6star.wav,,audio-keyboard-response,105,217015,0.0-7.0-1.9,dynamic,"2,1,6,3",I043,,,,,,C401116,,,null,6,261,
,2,html-button-response,106,217938,0.0-7.0-0.10,dynamic,"2,1,6,3",I043,,,,,,C401116,,,,,,
sound/6star.wav,,audio-keyboard-response,107,219441,0.0-7.0-1.10,dynamic,"2,1,6,3",I043,,,,,,C401116,,,null,6,267,
,2,html-button-response,108,220624,0.0-7.0-0.11,dynamic,"2,1,6,3",I043,,,,,,C401116,,,,,,
sound/6star.wav,,audio-keyboard-response,109,222129,0.0-7.0-1.11,dynamic,"2,1,6,3",I043,,,,,,C401116,,,null,6,273,
,2,html-button-response,110,223266,0.0-7.0-0.12,dynamic,"2,1,6,3",I043,,,,,,C401116,,,,,,
sound/6star.wav,,audio-keyboard-response,111,224771,0.0-7.0-1.12,dynamic,"2,1,6,3",I043,,,,,,C401116,,,null,6,279,
,2,html-button-response,112,226014,0.0-7.0-0.13,dynamic,"2,1,6,3",I043,,,,,,C401116,,,,,,
sound/6star.wav,,audio-keyboard-response,113,227517,0.0-7.0-1.13,dynamic,"2,1,6,3",I043,,,,,,C401116,,,null,6,285,
,2,html-button-response,114,229200,0.0-7.0-0.14,dynamic,"2,1,6,3",I043,,,,,,C401116,,,,,,
sound/6star.wav,,audio-keyboard-response,115,230703,0.0-7.0-1.14,dynamic,"2,1,6,3",I043,,,,,,C401116,,,null,6,291,
,2,html-button-response,116,235741,0.0-7.0-0.15,dynamic,"2,1,6,3",I043,,,,,,C401116,,,,,,
sound/6star.wav,,audio-keyboard-response,117,237245,0.0-7.0-1.15,dynamic,"2,1,6,3",I043,,,,,,C401116,,,null,6,297,
,2,html-button-response,118,238220,0.0-7.0-0.16,dynamic,"2,1,6,3",I043,,,,,,C401116,,,,,,
sound/6star.wav,,audio-keyboard-response,119,239725,0.0-7.0-1.16,dynamic,"2,1,6,3",I043,,,,,,C401116,,,null,6,303,
,2,html-button-response,120,240756,0.0-7.0-0.17,dynamic,"2,1,6,3",I043,,,,,,C401116,,,,,,
sound/6star.wav,,audio-keyboard-response,121,242258,0.0-7.0-1.17,dynamic,"2,1,6,3",I043,,,,,,C401116,,,null,6,309,
,2,html-button-response,122,243442,0.0-7.0-0.18,dynamic,"2,1,6,3",I043,,,,,,C401116,,,,,,
sound/6star.wav,,audio-keyboard-response,123,244948,0.0-7.0-1.18,dynamic,"2,1,6,3",I043,,,,,,C401116,,,null,6,315,
,2,html-button-response,124,246183,0.0-7.0-0.19,dynamic,"2,1,6,3",I043,,,,,,C401116,,,,,,
sound/6star.wav,,audio-keyboard-response,125,247687,0.0-7.0-1.19,dynamic,"2,1,6,3",I043,,,,,,C401116,,,null,6,321,
,2,html-button-response,126,248903,0.0-7.0-0.20,dynamic,"2,1,6,3",I043,,,,,,C401116,,,,,,
sound/6star.wav,,audio-keyboard-response,127,250411,0.0-7.0-1.20,dynamic,"2,1,6,3",I043,,,,,,C401116,,,null,6,327,
,2,html-button-response,128,251879,0.0-7.0-0.21,dynamic,"2,1,6,3",I043,,,,,,C401116,,,,,,
sound/6star.wav,,audio-keyboard-response,129,253383,0.0-7.0-1.21,dynamic,"2,1,6,3",I043,,,,,,C401116,,,null,6,333,
,2,html-button-response,130,254681,0.0-7.0-0.22,dynamic,"2,1,6,3",I043,,,,,,C401116,,,,,,
sound/6star.wav,,audio-keyboard-response,131,256185,0.0-7.0-1.22,dynamic,"2,1,6,3",I043,,,,,,C401116,,,null,6,339,
,2,html-button-response,132,257356,0.0-7.0-0.23,dynamic,"2,1,6,3",I043,,,,,,C401116,,,,,,
sound/6star.wav,,audio-keyboard-response,133,258862,0.0-7.0-1.23,dynamic,"2,1,6,3",I043,,,,,,C401116,,,null,6,345,
,2,html-button-response,134,260136,0.0-7.0-0.24,dynamic,"2,1,6,3",I043,,,,,,C401116,,,,,,
sound/6star.wav,,audio-keyboard-response,135,261641,0.0-7.0-1.24,dynamic,"2,1,6,3",I043,,,,,,C401116,,,null,6,351,
,2,html-button-response,136,263106,0.0-7.0-0.25,dynamic,"2,1,6,3",I043,,,,,,C401116,,,,,,
sound/6star.wav,,audio-keyboard-response,137,264610,0.0-7.0-1.25,dynamic,"2,1,6,3",I043,,,,,,C401116,,,null,6,357,
,2,html-button-response,138,266022,0.0-7.0-0.26,dynamic,"2,1,6,3",I043,,,,,,C401116,,,,,,
sound/6star.wav,,audio-keyboard-response,139,267526,0.0-7.0-1.26,dynamic,"2,1,6,3",I043,,,,,,C401116,,,null,6,363,
,2,html-button-response,140,268672,0.0-7.0-0.27,dynamic,"2,1,6,3",I043,,,,,,C401116,,,,,,
